,Trial,Participant,Tree.Node.Key,display,Reaction.Time,Zone.Name,Response,Correct,audio1,audio2,X,voice,wav1_type,wav2_type,Sex,Age,BirthCountry,Date,TimeTaken,Approvals,Location
1,1,66e47724a2be5c247faf28cf,task-2z3l,abx,1125.4,buttonA,First,1,voice_08_human_060.mp3,voice_08_clone_060.mp3,NA,8,human,clone,Female,28,United Kingdom,2025-05-13T11:41:55.947000Z,1522,186,"North West, England (Cumbria, Greater Manchester, Lancashire, Merseyside)"
2,2,66e47724a2be5c247faf28cf,task-2z3l,abx,934.2,buttonA,First,1,voice_01_human_060.mp3,voice_01_clone_060.mp3,NA,1,human,clone,Female,28,United Kingdom,2025-05-13T11:41:55.947000Z,1522,186,"North West, England (Cumbria, Greater Manchester, Lancashire, Merseyside)"
3,3,66e47724a2be5c247faf28cf,task-2z3l,abx,699.6,buttonA,First,1,voice_12_human_060.mp3,voice_12_clone_060.mp3,NA,12,human,clone,Female,28,United Kingdom,2025-05-13T11:41:55.947000Z,1522,186,"North West, England (Cumbria, Greater Manchester, Lancashire, Merseyside)"
4,5,66e47724a2be5c247faf28cf,task-2z3l,abx,650.6,buttonB,Second,1,voice_06_clone_060.mp3,voice_06_human_060.mp3,NA,6,clone,human,Female,28,United Kingdom,2025-05-13T11:41:55.947000Z,1522,186,"North West, England (Cumbria, Greater Manchester, Lancashire, Merseyside)"
5,6,66e47724a2be5c247faf28cf,task-2z3l,abx,2587,buttonA,First,1,voice_11_human_060.mp3,voice_11_clone_060.mp3,NA,11,human,clone,Female,28,United Kingdom,2025-05-13T11:41:55.947000Z,1522,186,"North West, England (Cumbria, Greater Manchester, Lancashire, Merseyside)"
6,8,66e47724a2be5c247faf28cf,task-2z3l,abx,589.9,buttonB,Second,1,voice_04_clone_060.mp3,voice_04_human_060.mp3,NA,4,clone,human,Female,28,United Kingdom,2025-05-13T11:41:55.947000Z,1522,186,"North West, England (Cumbria, Greater Manchester, Lancashire, Merseyside)"
7,9,66e47724a2be5c247faf28cf,task-2z3l,abx,467.7,buttonB,Second,1,voice_07_clone_060.mp3,voice_07_human_060.mp3,NA,7,clone,human,Female,28,United Kingdom,2025-05-13T11:41:55.947000Z,1522,186,"North West, England (Cumbria, Greater Manchester, Lancashire, Merseyside)"
8,10,66e47724a2be5c247faf28cf,task-2z3l,abx,551.4,buttonB,Second,1,voice_09_clone_060.mp3,voice_09_human_060.mp3,NA,9,clone,human,Female,28,United Kingdom,2025-05-13T11:41:55.947000Z,1522,186,"North West, England (Cumbria, Greater Manchester, Lancashire, Merseyside)"
9,11,66e47724a2be5c247faf28cf,task-2z3l,abx,660.1,buttonB,Second,1,voice_12_clone_060.mp3,voice_12_human_060.mp3,NA,12,clone,human,Female,28,United Kingdom,2025-05-13T11:41:55.947000Z,1522,186,"North West, England (Cumbria, Greater Manchester, Lancashire, Merseyside)"
10,12,66e47724a2be5c247faf28cf,task-2z3l,abx,567.9,buttonB,Second,1,voice_01_clone_060.mp3,voice_01_human_060.mp3,NA,1,clone,human,Female,28,United Kingdom,2025-05-13T11:41:55.947000Z,1522,186,"North West, England (Cumbria, Greater Manchester, Lancashire, Merseyside)"
11,13,66e47724a2be5c247faf28cf,task-2z3l,abx,589.7,buttonB,Second,1,voice_03_clone_060.mp3,voice_03_human_060.mp3,NA,3,clone,human,Female,28,United Kingdom,2025-05-13T11:41:55.947000Z,1522,186,"North West, England (Cumbria, Greater Manchester, Lancashire, Merseyside)"
12,14,66e47724a2be5c247faf28cf,task-2z3l,abx,772.9,buttonA,First,1,voice_07_human_060.mp3,voice_07_clone_060.mp3,NA,7,human,clone,Female,28,United Kingdom,2025-05-13T11:41:55.947000Z,1522,186,"North West, England (Cumbria, Greater Manchester, Lancashire, Merseyside)"
13,15,66e47724a2be5c247faf28cf,task-2z3l,abx,794.3,buttonB,Second,1,voice_08_clone_060.mp3,voice_08_human_060.mp3,NA,8,clone,human,Female,28,United Kingdom,2025-05-13T11:41:55.947000Z,1522,186,"North West, England (Cumbria, Greater Manchester, Lancashire, Merseyside)"
14,16,66e47724a2be5c247faf28cf,task-2z3l,abx,1305.9,buttonB,Second,1,voice_11_clone_060.mp3,voice_11_human_060.mp3,NA,11,clone,human,Female,28,United Kingdom,2025-05-13T11:41:55.947000Z,1522,186,"North West, England (Cumbria, Greater Manchester, Lancashire, Merseyside)"
15,17,66e47724a2be5c247faf28cf,task-2z3l,abx,501.1,buttonA,First,1,voice_06_human_060.mp3,voice_06_clone_060.mp3,NA,6,human,clone,Female,28,United Kingdom,2025-05-13T11:41:55.947000Z,1522,186,"North West, England (Cumbria, Greater Manchester, Lancashire, Merseyside)"
16,19,66e47724a2be5c247faf28cf,task-2z3l,abx,574,buttonB,Second,1,voice_10_clone_060.mp3,voice_10_human_060.mp3,NA,10,clone,human,Female,28,United Kingdom,2025-05-13T11:41:55.947000Z,1522,186,"North West, England (Cumbria, Greater Manchester, Lancashire, Merseyside)"
17,20,66e47724a2be5c247faf28cf,task-2z3l,abx,629.4,buttonA,First,1,voice_09_human_060.mp3,voice_09_clone_060.mp3,NA,9,human,clone,Female,28,United Kingdom,2025-05-13T11:41:55.947000Z,1522,186,"North West, England (Cumbria, Greater Manchester, Lancashire, Merseyside)"
18,21,67608a84f196088910ff544f,task-2z3l,abx,4711.8,buttonB,Second,1,voice_09_clone_060.mp3,voice_09_human_060.mp3,NA,9,clone,human,Female,18,United Kingdom,2025-05-13T15:58:19.213000Z,2010,82,"South East, England (Berkshire, Buckinghamshire, and Oxfordshire, Surrey, Sussex, Kent, Hampshire and Isle of Wight)"
19,22,67608a84f196088910ff544f,task-2z3l,abx,2262.1,buttonA,First,1,voice_03_human_060.mp3,voice_03_clone_060.mp3,NA,3,human,clone,Female,18,United Kingdom,2025-05-13T15:58:19.213000Z,2010,82,"South East, England (Berkshire, Buckinghamshire, and Oxfordshire, Surrey, Sussex, Kent, Hampshire and Isle of Wight)"
20,23,67608a84f196088910ff544f,task-2z3l,abx,3432.6,buttonB,Second,1,voice_01_clone_060.mp3,voice_01_human_060.mp3,NA,1,clone,human,Female,18,United Kingdom,2025-05-13T15:58:19.213000Z,2010,82,"South East, England (Berkshire, Buckinghamshire, and Oxfordshire, Surrey, Sussex, Kent, Hampshire and Isle of Wight)"
21,25,67608a84f196088910ff544f,task-2z3l,abx,1620.7,buttonA,First,1,voice_06_human_060.mp3,voice_06_clone_060.mp3,NA,6,human,clone,Female,18,United Kingdom,2025-05-13T15:58:19.213000Z,2010,82,"South East, England (Berkshire, Buckinghamshire, and Oxfordshire, Surrey, Sussex, Kent, Hampshire and Isle of Wight)"
22,28,67608a84f196088910ff544f,task-2z3l,abx,1216.8,buttonA,First,1,voice_08_human_060.mp3,voice_08_clone_060.mp3,NA,8,human,clone,Female,18,United Kingdom,2025-05-13T15:58:19.213000Z,2010,82,"South East, England (Berkshire, Buckinghamshire, and Oxfordshire, Surrey, Sussex, Kent, Hampshire and Isle of Wight)"
23,29,67608a84f196088910ff544f,task-2z3l,abx,1390,buttonB,Second,1,voice_04_clone_060.mp3,voice_04_human_060.mp3,NA,4,clone,human,Female,18,United Kingdom,2025-05-13T15:58:19.213000Z,2010,82,"South East, England (Berkshire, Buckinghamshire, and Oxfordshire, Surrey, Sussex, Kent, Hampshire and Isle of Wight)"
24,30,67608a84f196088910ff544f,task-2z3l,abx,1440.7,buttonA,First,1,voice_12_human_060.mp3,voice_12_clone_060.mp3,NA,12,human,clone,Female,18,United Kingdom,2025-05-13T15:58:19.213000Z,2010,82,"South East, England (Berkshire, Buckinghamshire, and Oxfordshire, Surrey, Sussex, Kent, Hampshire and Isle of Wight)"
25,32,67608a84f196088910ff544f,task-2z3l,abx,928.3000002,buttonA,First,1,voice_11_human_060.mp3,voice_11_clone_060.mp3,NA,11,human,clone,Female,18,United Kingdom,2025-05-13T15:58:19.213000Z,2010,82,"South East, England (Berkshire, Buckinghamshire, and Oxfordshire, Surrey, Sussex, Kent, Hampshire and Isle of Wight)"
26,33,67608a84f196088910ff544f,task-2z3l,abx,1831.7,buttonB,Second,1,voice_10_clone_060.mp3,voice_10_human_060.mp3,NA,10,clone,human,Female,18,United Kingdom,2025-05-13T15:58:19.213000Z,2010,82,"South East, England (Berkshire, Buckinghamshire, and Oxfordshire, Surrey, Sussex, Kent, Hampshire and Isle of Wight)"
27,34,67608a84f196088910ff544f,task-2z3l,abx,1285,buttonA,First,1,voice_04_human_060.mp3,voice_04_clone_060.mp3,NA,4,human,clone,Female,18,United Kingdom,2025-05-13T15:58:19.213000Z,2010,82,"South East, England (Berkshire, Buckinghamshire, and Oxfordshire, Surrey, Sussex, Kent, Hampshire and Isle of Wight)"
28,35,67608a84f196088910ff544f,task-2z3l,abx,1200.2,buttonA,First,1,voice_09_human_060.mp3,voice_09_clone_060.mp3,NA,9,human,clone,Female,18,United Kingdom,2025-05-13T15:58:19.213000Z,2010,82,"South East, England (Berkshire, Buckinghamshire, and Oxfordshire, Surrey, Sussex, Kent, Hampshire and Isle of Wight)"
29,37,67608a84f196088910ff544f,task-2z3l,abx,1519.4,buttonB,Second,1,voice_11_clone_060.mp3,voice_11_human_060.mp3,NA,11,clone,human,Female,18,United Kingdom,2025-05-13T15:58:19.213000Z,2010,82,"South East, England (Berkshire, Buckinghamshire, and Oxfordshire, Surrey, Sussex, Kent, Hampshire and Isle of Wight)"
30,38,67608a84f196088910ff544f,task-2z3l,abx,723.0999999,buttonB,Second,1,voice_06_clone_060.mp3,voice_06_human_060.mp3,NA,6,clone,human,Female,18,United Kingdom,2025-05-13T15:58:19.213000Z,2010,82,"South East, England (Berkshire, Buckinghamshire, and Oxfordshire, Surrey, Sussex, Kent, Hampshire and Isle of Wight)"
31,39,67608a84f196088910ff544f,task-2z3l,abx,1354.9,buttonB,Second,1,voice_12_clone_060.mp3,voice_12_human_060.mp3,NA,12,clone,human,Female,18,United Kingdom,2025-05-13T15:58:19.213000Z,2010,82,"South East, England (Berkshire, Buckinghamshire, and Oxfordshire, Surrey, Sussex, Kent, Hampshire and Isle of Wight)"
32,41,67766db6d5f664c343ae5808,task-2z3l,abx,1714.7,buttonB,Second,1,voice_06_clone_060.mp3,voice_06_human_060.mp3,NA,6,clone,human,Female,33,United Kingdom,2025-05-13T16:02:37.997000Z,1981,160,"South West, England (Gloucestershire, Wiltshire and Bristol/Bath area, Dorset and Somerset, Cornwall and Isles of Scilly, Devon)"
33,43,67766db6d5f664c343ae5808,task-2z3l,abx,2309.7,buttonA,First,1,voice_11_human_060.mp3,voice_11_clone_060.mp3,NA,11,human,clone,Female,33,United Kingdom,2025-05-13T16:02:37.997000Z,1981,160,"South West, England (Gloucestershire, Wiltshire and Bristol/Bath area, Dorset and Somerset, Cornwall and Isles of Scilly, Devon)"
34,46,67766db6d5f664c343ae5808,task-2z3l,abx,1020.7,buttonB,Second,1,voice_04_clone_060.mp3,voice_04_human_060.mp3,NA,4,clone,human,Female,33,United Kingdom,2025-05-13T16:02:37.997000Z,1981,160,"South West, England (Gloucestershire, Wiltshire and Bristol/Bath area, Dorset and Somerset, Cornwall and Isles of Scilly, Devon)"
35,47,67766db6d5f664c343ae5808,task-2z3l,abx,3165.6,buttonA,First,1,voice_03_human_060.mp3,voice_03_clone_060.mp3,NA,3,human,clone,Female,33,United Kingdom,2025-05-13T16:02:37.997000Z,1981,160,"South West, England (Gloucestershire, Wiltshire and Bristol/Bath area, Dorset and Somerset, Cornwall and Isles of Scilly, Devon)"
36,48,67766db6d5f664c343ae5808,task-2z3l,abx,580.0999999,buttonA,First,1,voice_08_human_060.mp3,voice_08_clone_060.mp3,NA,8,human,clone,Female,33,United Kingdom,2025-05-13T16:02:37.997000Z,1981,160,"South West, England (Gloucestershire, Wiltshire and Bristol/Bath area, Dorset and Somerset, Cornwall and Isles of Scilly, Devon)"
37,49,67766db6d5f664c343ae5808,task-2z3l,abx,586.5,buttonA,First,1,voice_06_human_060.mp3,voice_06_clone_060.mp3,NA,6,human,clone,Female,33,United Kingdom,2025-05-13T16:02:37.997000Z,1981,160,"South West, England (Gloucestershire, Wiltshire and Bristol/Bath area, Dorset and Somerset, Cornwall and Isles of Scilly, Devon)"
38,50,67766db6d5f664c343ae5808,task-2z3l,abx,1195.9,buttonB,Second,1,voice_12_clone_060.mp3,voice_12_human_060.mp3,NA,12,clone,human,Female,33,United Kingdom,2025-05-13T16:02:37.997000Z,1981,160,"South West, England (Gloucestershire, Wiltshire and Bristol/Bath area, Dorset and Somerset, Cornwall and Isles of Scilly, Devon)"
39,51,67766db6d5f664c343ae5808,task-2z3l,abx,1078.2,buttonB,Second,1,voice_08_clone_060.mp3,voice_08_human_060.mp3,NA,8,clone,human,Female,33,United Kingdom,2025-05-13T16:02:37.997000Z,1981,160,"South West, England (Gloucestershire, Wiltshire and Bristol/Bath area, Dorset and Somerset, Cornwall and Isles of Scilly, Devon)"
40,52,67766db6d5f664c343ae5808,task-2z3l,abx,883.4000001,buttonB,Second,1,voice_07_clone_060.mp3,voice_07_human_060.mp3,NA,7,clone,human,Female,33,United Kingdom,2025-05-13T16:02:37.997000Z,1981,160,"South West, England (Gloucestershire, Wiltshire and Bristol/Bath area, Dorset and Somerset, Cornwall and Isles of Scilly, Devon)"
41,53,67766db6d5f664c343ae5808,task-2z3l,abx,1326.1,buttonB,Second,1,voice_11_clone_060.mp3,voice_11_human_060.mp3,NA,11,clone,human,Female,33,United Kingdom,2025-05-13T16:02:37.997000Z,1981,160,"South West, England (Gloucestershire, Wiltshire and Bristol/Bath area, Dorset and Somerset, Cornwall and Isles of Scilly, Devon)"
42,55,67766db6d5f664c343ae5808,task-2z3l,abx,1579,buttonA,First,1,voice_12_human_060.mp3,voice_12_clone_060.mp3,NA,12,human,clone,Female,33,United Kingdom,2025-05-13T16:02:37.997000Z,1981,160,"South West, England (Gloucestershire, Wiltshire and Bristol/Bath area, Dorset and Somerset, Cornwall and Isles of Scilly, Devon)"
43,56,67766db6d5f664c343ae5808,task-2z3l,abx,1885.6,buttonB,Second,1,voice_03_clone_060.mp3,voice_03_human_060.mp3,NA,3,clone,human,Female,33,United Kingdom,2025-05-13T16:02:37.997000Z,1981,160,"South West, England (Gloucestershire, Wiltshire and Bristol/Bath area, Dorset and Somerset, Cornwall and Isles of Scilly, Devon)"
44,58,67766db6d5f664c343ae5808,task-2z3l,abx,1020.5,buttonA,First,1,voice_04_human_060.mp3,voice_04_clone_060.mp3,NA,4,human,clone,Female,33,United Kingdom,2025-05-13T16:02:37.997000Z,1981,160,"South West, England (Gloucestershire, Wiltshire and Bristol/Bath area, Dorset and Somerset, Cornwall and Isles of Scilly, Devon)"
45,59,67766db6d5f664c343ae5808,task-2z3l,abx,566.8999999,buttonB,Second,1,voice_01_clone_060.mp3,voice_01_human_060.mp3,NA,1,clone,human,Female,33,United Kingdom,2025-05-13T16:02:37.997000Z,1981,160,"South West, England (Gloucestershire, Wiltshire and Bristol/Bath area, Dorset and Somerset, Cornwall and Isles of Scilly, Devon)"
46,61,67cf78059750cd9cdb923060,task-2z3l,abx,3205.5,buttonA,First,1,voice_01_human_060.mp3,voice_01_clone_060.mp3,NA,1,human,clone,Female,20,United Kingdom,2025-05-14T05:48:07.294000Z,3160,64,"South East, England (Berkshire, Buckinghamshire, and Oxfordshire, Surrey, Sussex, Kent, Hampshire and Isle of Wight)"
47,62,67cf78059750cd9cdb923060,task-2z3l,abx,2816.4,buttonB,Second,1,voice_08_clone_060.mp3,voice_08_human_060.mp3,NA,8,clone,human,Female,20,United Kingdom,2025-05-14T05:48:07.294000Z,3160,64,"South East, England (Berkshire, Buckinghamshire, and Oxfordshire, Surrey, Sussex, Kent, Hampshire and Isle of Wight)"
48,64,67cf78059750cd9cdb923060,task-2z3l,abx,2044.7,buttonA,First,1,voice_08_human_060.mp3,voice_08_clone_060.mp3,NA,8,human,clone,Female,20,United Kingdom,2025-05-14T05:48:07.294000Z,3160,64,"South East, England (Berkshire, Buckinghamshire, and Oxfordshire, Surrey, Sussex, Kent, Hampshire and Isle of Wight)"
49,66,67cf78059750cd9cdb923060,task-2z3l,abx,779,buttonB,Second,1,voice_12_clone_060.mp3,voice_12_human_060.mp3,NA,12,clone,human,Female,20,United Kingdom,2025-05-14T05:48:07.294000Z,3160,64,"South East, England (Berkshire, Buckinghamshire, and Oxfordshire, Surrey, Sussex, Kent, Hampshire and Isle of Wight)"
50,67,67cf78059750cd9cdb923060,task-2z3l,abx,1007.1,buttonB,Second,1,voice_04_clone_060.mp3,voice_04_human_060.mp3,NA,4,clone,human,Female,20,United Kingdom,2025-05-14T05:48:07.294000Z,3160,64,"South East, England (Berkshire, Buckinghamshire, and Oxfordshire, Surrey, Sussex, Kent, Hampshire and Isle of Wight)"
51,68,67cf78059750cd9cdb923060,task-2z3l,abx,1043,buttonB,Second,1,voice_01_clone_060.mp3,voice_01_human_060.mp3,NA,1,clone,human,Female,20,United Kingdom,2025-05-14T05:48:07.294000Z,3160,64,"South East, England (Berkshire, Buckinghamshire, and Oxfordshire, Surrey, Sussex, Kent, Hampshire and Isle of Wight)"
52,69,67cf78059750cd9cdb923060,task-2z3l,abx,811.1,buttonA,First,1,voice_04_human_060.mp3,voice_04_clone_060.mp3,NA,4,human,clone,Female,20,United Kingdom,2025-05-14T05:48:07.294000Z,3160,64,"South East, England (Berkshire, Buckinghamshire, and Oxfordshire, Surrey, Sussex, Kent, Hampshire and Isle of Wight)"
53,72,67cf78059750cd9cdb923060,task-2z3l,abx,631.6,buttonA,First,1,voice_12_human_060.mp3,voice_12_clone_060.mp3,NA,12,human,clone,Female,20,United Kingdom,2025-05-14T05:48:07.294000Z,3160,64,"South East, England (Berkshire, Buckinghamshire, and Oxfordshire, Surrey, Sussex, Kent, Hampshire and Isle of Wight)"
54,73,67cf78059750cd9cdb923060,task-2z3l,abx,2575.1,buttonA,First,1,voice_07_human_060.mp3,voice_07_clone_060.mp3,NA,7,human,clone,Female,20,United Kingdom,2025-05-14T05:48:07.294000Z,3160,64,"South East, England (Berkshire, Buckinghamshire, and Oxfordshire, Surrey, Sussex, Kent, Hampshire and Isle of Wight)"
55,75,67cf78059750cd9cdb923060,task-2z3l,abx,830.9,buttonB,Second,1,voice_06_clone_060.mp3,voice_06_human_060.mp3,NA,6,clone,human,Female,20,United Kingdom,2025-05-14T05:48:07.294000Z,3160,64,"South East, England (Berkshire, Buckinghamshire, and Oxfordshire, Surrey, Sussex, Kent, Hampshire and Isle of Wight)"
56,81,671ec2ffd89afa2ce6dea859,task-2z3l,abx,1051.2,buttonB,Second,1,voice_07_clone_060.mp3,voice_07_human_060.mp3,NA,7,clone,human,Female,31,United Kingdom,2025-05-14T07:37:27.974000Z,2590,172,"East of England (East Anglia, Bedfordshire and Hertfordshire, Essex)"
57,82,671ec2ffd89afa2ce6dea859,task-2z3l,abx,3975.4,buttonA,First,1,voice_10_human_060.mp3,voice_10_clone_060.mp3,NA,10,human,clone,Female,31,United Kingdom,2025-05-14T07:37:27.974000Z,2590,172,"East of England (East Anglia, Bedfordshire and Hertfordshire, Essex)"
58,84,671ec2ffd89afa2ce6dea859,task-2z3l,abx,3984.2,buttonB,Second,1,voice_10_clone_060.mp3,voice_10_human_060.mp3,NA,10,clone,human,Female,31,United Kingdom,2025-05-14T07:37:27.974000Z,2590,172,"East of England (East Anglia, Bedfordshire and Hertfordshire, Essex)"
59,86,671ec2ffd89afa2ce6dea859,task-2z3l,abx,2567.6,buttonA,First,1,voice_06_human_060.mp3,voice_06_clone_060.mp3,NA,6,human,clone,Female,31,United Kingdom,2025-05-14T07:37:27.974000Z,2590,172,"East of England (East Anglia, Bedfordshire and Hertfordshire, Essex)"
60,88,671ec2ffd89afa2ce6dea859,task-2z3l,abx,2207.2,buttonB,Second,1,voice_09_clone_060.mp3,voice_09_human_060.mp3,NA,9,clone,human,Female,31,United Kingdom,2025-05-14T07:37:27.974000Z,2590,172,"East of England (East Anglia, Bedfordshire and Hertfordshire, Essex)"
61,89,671ec2ffd89afa2ce6dea859,task-2z3l,abx,1825,buttonB,Second,1,voice_08_clone_060.mp3,voice_08_human_060.mp3,NA,8,clone,human,Female,31,United Kingdom,2025-05-14T07:37:27.974000Z,2590,172,"East of England (East Anglia, Bedfordshire and Hertfordshire, Essex)"
62,90,671ec2ffd89afa2ce6dea859,task-2z3l,abx,1746.2,buttonA,First,1,voice_09_human_060.mp3,voice_09_clone_060.mp3,NA,9,human,clone,Female,31,United Kingdom,2025-05-14T07:37:27.974000Z,2590,172,"East of England (East Anglia, Bedfordshire and Hertfordshire, Essex)"
63,91,671ec2ffd89afa2ce6dea859,task-2z3l,abx,1214.5,buttonB,Second,1,voice_12_clone_060.mp3,voice_12_human_060.mp3,NA,12,clone,human,Female,31,United Kingdom,2025-05-14T07:37:27.974000Z,2590,172,"East of England (East Anglia, Bedfordshire and Hertfordshire, Essex)"
64,92,671ec2ffd89afa2ce6dea859,task-2z3l,abx,3141.2,buttonB,Second,1,voice_11_clone_060.mp3,voice_11_human_060.mp3,NA,11,clone,human,Female,31,United Kingdom,2025-05-14T07:37:27.974000Z,2590,172,"East of England (East Anglia, Bedfordshire and Hertfordshire, Essex)"
65,94,671ec2ffd89afa2ce6dea859,task-2z3l,abx,1284.5,buttonB,Second,1,voice_06_clone_060.mp3,voice_06_human_060.mp3,NA,6,clone,human,Female,31,United Kingdom,2025-05-14T07:37:27.974000Z,2590,172,"East of England (East Anglia, Bedfordshire and Hertfordshire, Essex)"
66,95,671ec2ffd89afa2ce6dea859,task-2z3l,abx,1252.4,buttonA,First,1,voice_12_human_060.mp3,voice_12_clone_060.mp3,NA,12,human,clone,Female,31,United Kingdom,2025-05-14T07:37:27.974000Z,2590,172,"East of England (East Anglia, Bedfordshire and Hertfordshire, Essex)"
67,96,671ec2ffd89afa2ce6dea859,task-2z3l,abx,1592.5,buttonA,First,1,voice_07_human_060.mp3,voice_07_clone_060.mp3,NA,7,human,clone,Female,31,United Kingdom,2025-05-14T07:37:27.974000Z,2590,172,"East of England (East Anglia, Bedfordshire and Hertfordshire, Essex)"
68,98,671ec2ffd89afa2ce6dea859,task-2z3l,abx,1488.7,buttonA,First,1,voice_01_human_060.mp3,voice_01_clone_060.mp3,NA,1,human,clone,Female,31,United Kingdom,2025-05-14T07:37:27.974000Z,2590,172,"East of England (East Anglia, Bedfordshire and Hertfordshire, Essex)"
69,100,671ec2ffd89afa2ce6dea859,task-2z3l,abx,2079.9,buttonA,First,1,voice_08_human_060.mp3,voice_08_clone_060.mp3,NA,8,human,clone,Female,31,United Kingdom,2025-05-14T07:37:27.974000Z,2590,172,"East of England (East Anglia, Bedfordshire and Hertfordshire, Essex)"
70,101,6147a46c86c01065f87751d5,task-2z3l,abx,2186.1,buttonA,First,1,voice_12_human_060.mp3,voice_12_clone_060.mp3,NA,12,human,clone,Female,35,United Kingdom,2025-05-14T09:24:34.237000Z,1820,96,"South East, England (Berkshire, Buckinghamshire, and Oxfordshire, Surrey, Sussex, Kent, Hampshire and Isle of Wight)"
71,102,6147a46c86c01065f87751d5,task-2z3l,abx,1771.9,buttonA,First,1,voice_06_human_060.mp3,voice_06_clone_060.mp3,NA,6,human,clone,Female,35,United Kingdom,2025-05-14T09:24:34.237000Z,1820,96,"South East, England (Berkshire, Buckinghamshire, and Oxfordshire, Surrey, Sussex, Kent, Hampshire and Isle of Wight)"
72,103,6147a46c86c01065f87751d5,task-2z3l,abx,1522.099999,buttonA,First,1,voice_08_human_060.mp3,voice_08_clone_060.mp3,NA,8,human,clone,Female,35,United Kingdom,2025-05-14T09:24:34.237000Z,1820,96,"South East, England (Berkshire, Buckinghamshire, and Oxfordshire, Surrey, Sussex, Kent, Hampshire and Isle of Wight)"
73,104,6147a46c86c01065f87751d5,task-2z3l,abx,1373.6,buttonB,Second,1,voice_09_clone_060.mp3,voice_09_human_060.mp3,NA,9,clone,human,Female,35,United Kingdom,2025-05-14T09:24:34.237000Z,1820,96,"South East, England (Berkshire, Buckinghamshire, and Oxfordshire, Surrey, Sussex, Kent, Hampshire and Isle of Wight)"
74,105,6147a46c86c01065f87751d5,task-2z3l,abx,1050.3,buttonA,First,1,voice_09_human_060.mp3,voice_09_clone_060.mp3,NA,9,human,clone,Female,35,United Kingdom,2025-05-14T09:24:34.237000Z,1820,96,"South East, England (Berkshire, Buckinghamshire, and Oxfordshire, Surrey, Sussex, Kent, Hampshire and Isle of Wight)"
75,106,6147a46c86c01065f87751d5,task-2z3l,abx,835.6000004,buttonB,Second,1,voice_03_clone_060.mp3,voice_03_human_060.mp3,NA,3,clone,human,Female,35,United Kingdom,2025-05-14T09:24:34.237000Z,1820,96,"South East, England (Berkshire, Buckinghamshire, and Oxfordshire, Surrey, Sussex, Kent, Hampshire and Isle of Wight)"
76,107,6147a46c86c01065f87751d5,task-2z3l,abx,1206.8,buttonA,First,1,voice_03_human_060.mp3,voice_03_clone_060.mp3,NA,3,human,clone,Female,35,United Kingdom,2025-05-14T09:24:34.237000Z,1820,96,"South East, England (Berkshire, Buckinghamshire, and Oxfordshire, Surrey, Sussex, Kent, Hampshire and Isle of Wight)"
77,108,6147a46c86c01065f87751d5,task-2z3l,abx,800.4000006,buttonB,Second,1,voice_11_clone_060.mp3,voice_11_human_060.mp3,NA,11,clone,human,Female,35,United Kingdom,2025-05-14T09:24:34.237000Z,1820,96,"South East, England (Berkshire, Buckinghamshire, and Oxfordshire, Surrey, Sussex, Kent, Hampshire and Isle of Wight)"
78,109,6147a46c86c01065f87751d5,task-2z3l,abx,1141.8,buttonA,First,1,voice_01_human_060.mp3,voice_01_clone_060.mp3,NA,1,human,clone,Female,35,United Kingdom,2025-05-14T09:24:34.237000Z,1820,96,"South East, England (Berkshire, Buckinghamshire, and Oxfordshire, Surrey, Sussex, Kent, Hampshire and Isle of Wight)"
79,112,6147a46c86c01065f87751d5,task-2z3l,abx,1157.4,buttonB,Second,1,voice_08_clone_060.mp3,voice_08_human_060.mp3,NA,8,clone,human,Female,35,United Kingdom,2025-05-14T09:24:34.237000Z,1820,96,"South East, England (Berkshire, Buckinghamshire, and Oxfordshire, Surrey, Sussex, Kent, Hampshire and Isle of Wight)"
80,113,6147a46c86c01065f87751d5,task-2z3l,abx,2221.099999,buttonB,Second,1,voice_01_clone_060.mp3,voice_01_human_060.mp3,NA,1,clone,human,Female,35,United Kingdom,2025-05-14T09:24:34.237000Z,1820,96,"South East, England (Berkshire, Buckinghamshire, and Oxfordshire, Surrey, Sussex, Kent, Hampshire and Isle of Wight)"
81,114,6147a46c86c01065f87751d5,task-2z3l,abx,1754.599999,buttonA,First,1,voice_10_human_060.mp3,voice_10_clone_060.mp3,NA,10,human,clone,Female,35,United Kingdom,2025-05-14T09:24:34.237000Z,1820,96,"South East, England (Berkshire, Buckinghamshire, and Oxfordshire, Surrey, Sussex, Kent, Hampshire and Isle of Wight)"
82,115,6147a46c86c01065f87751d5,task-2z3l,abx,910.3999996,buttonB,Second,1,voice_04_clone_060.mp3,voice_04_human_060.mp3,NA,4,clone,human,Female,35,United Kingdom,2025-05-14T09:24:34.237000Z,1820,96,"South East, England (Berkshire, Buckinghamshire, and Oxfordshire, Surrey, Sussex, Kent, Hampshire and Isle of Wight)"
83,116,6147a46c86c01065f87751d5,task-2z3l,abx,1049.7,buttonB,Second,1,voice_10_clone_060.mp3,voice_10_human_060.mp3,NA,10,clone,human,Female,35,United Kingdom,2025-05-14T09:24:34.237000Z,1820,96,"South East, England (Berkshire, Buckinghamshire, and Oxfordshire, Surrey, Sussex, Kent, Hampshire and Isle of Wight)"
84,117,6147a46c86c01065f87751d5,task-2z3l,abx,1763.299999,buttonB,Second,1,voice_12_clone_060.mp3,voice_12_human_060.mp3,NA,12,clone,human,Female,35,United Kingdom,2025-05-14T09:24:34.237000Z,1820,96,"South East, England (Berkshire, Buckinghamshire, and Oxfordshire, Surrey, Sussex, Kent, Hampshire and Isle of Wight)"
85,118,6147a46c86c01065f87751d5,task-2z3l,abx,771.3999996,buttonB,Second,1,voice_06_clone_060.mp3,voice_06_human_060.mp3,NA,6,clone,human,Female,35,United Kingdom,2025-05-14T09:24:34.237000Z,1820,96,"South East, England (Berkshire, Buckinghamshire, and Oxfordshire, Surrey, Sussex, Kent, Hampshire and Isle of Wight)"
86,119,6147a46c86c01065f87751d5,task-2z3l,abx,1740.7,buttonA,First,1,voice_04_human_060.mp3,voice_04_clone_060.mp3,NA,4,human,clone,Female,35,United Kingdom,2025-05-14T09:24:34.237000Z,1820,96,"South East, England (Berkshire, Buckinghamshire, and Oxfordshire, Surrey, Sussex, Kent, Hampshire and Isle of Wight)"
87,120,6147a46c86c01065f87751d5,task-2z3l,abx,971,buttonA,First,1,voice_11_human_060.mp3,voice_11_clone_060.mp3,NA,11,human,clone,Female,35,United Kingdom,2025-05-14T09:24:34.237000Z,1820,96,"South East, England (Berkshire, Buckinghamshire, and Oxfordshire, Surrey, Sussex, Kent, Hampshire and Isle of Wight)"
88,121,6773d0e0861b7f105b098899,task-2z3l,abx,1755.1,buttonB,Second,1,voice_01_clone_060.mp3,voice_01_human_060.mp3,NA,1,clone,human,Female,32,United Kingdom,2025-05-14T09:48:23.654000Z,1821,164,"Yorkshire and the Humber, England (East Riding, North Lincolnshire and Yorkshire)"
89,122,6773d0e0861b7f105b098899,task-2z3l,abx,807.4,buttonA,First,1,voice_07_human_060.mp3,voice_07_clone_060.mp3,NA,7,human,clone,Female,32,United Kingdom,2025-05-14T09:48:23.654000Z,1821,164,"Yorkshire and the Humber, England (East Riding, North Lincolnshire and Yorkshire)"
90,123,6773d0e0861b7f105b098899,task-2z3l,abx,1496.2,buttonA,First,1,voice_10_human_060.mp3,voice_10_clone_060.mp3,NA,10,human,clone,Female,32,United Kingdom,2025-05-14T09:48:23.654000Z,1821,164,"Yorkshire and the Humber, England (East Riding, North Lincolnshire and Yorkshire)"
91,124,6773d0e0861b7f105b098899,task-2z3l,abx,687.8,buttonA,First,1,voice_09_human_060.mp3,voice_09_clone_060.mp3,NA,9,human,clone,Female,32,United Kingdom,2025-05-14T09:48:23.654000Z,1821,164,"Yorkshire and the Humber, England (East Riding, North Lincolnshire and Yorkshire)"
92,125,6773d0e0861b7f105b098899,task-2z3l,abx,1206.8,buttonA,First,1,voice_01_human_060.mp3,voice_01_clone_060.mp3,NA,1,human,clone,Female,32,United Kingdom,2025-05-14T09:48:23.654000Z,1821,164,"Yorkshire and the Humber, England (East Riding, North Lincolnshire and Yorkshire)"
93,126,6773d0e0861b7f105b098899,task-2z3l,abx,516.9,buttonA,First,1,voice_04_human_060.mp3,voice_04_clone_060.mp3,NA,4,human,clone,Female,32,United Kingdom,2025-05-14T09:48:23.654000Z,1821,164,"Yorkshire and the Humber, England (East Riding, North Lincolnshire and Yorkshire)"
94,127,6773d0e0861b7f105b098899,task-2z3l,abx,534.3,buttonA,First,1,voice_08_human_060.mp3,voice_08_clone_060.mp3,NA,8,human,clone,Female,32,United Kingdom,2025-05-14T09:48:23.654000Z,1821,164,"Yorkshire and the Humber, England (East Riding, North Lincolnshire and Yorkshire)"
95,128,6773d0e0861b7f105b098899,task-2z3l,abx,803.6,buttonB,Second,1,voice_03_clone_060.mp3,voice_03_human_060.mp3,NA,3,clone,human,Female,32,United Kingdom,2025-05-14T09:48:23.654000Z,1821,164,"Yorkshire and the Humber, England (East Riding, North Lincolnshire and Yorkshire)"
96,129,6773d0e0861b7f105b098899,task-2z3l,abx,545.3,buttonA,First,1,voice_03_human_060.mp3,voice_03_clone_060.mp3,NA,3,human,clone,Female,32,United Kingdom,2025-05-14T09:48:23.654000Z,1821,164,"Yorkshire and the Humber, England (East Riding, North Lincolnshire and Yorkshire)"
97,130,6773d0e0861b7f105b098899,task-2z3l,abx,696.7,buttonB,Second,1,voice_11_clone_060.mp3,voice_11_human_060.mp3,NA,11,clone,human,Female,32,United Kingdom,2025-05-14T09:48:23.654000Z,1821,164,"Yorkshire and the Humber, England (East Riding, North Lincolnshire and Yorkshire)"
98,131,6773d0e0861b7f105b098899,task-2z3l,abx,548.8,buttonB,Second,1,voice_08_clone_060.mp3,voice_08_human_060.mp3,NA,8,clone,human,Female,32,United Kingdom,2025-05-14T09:48:23.654000Z,1821,164,"Yorkshire and the Humber, England (East Riding, North Lincolnshire and Yorkshire)"
99,132,6773d0e0861b7f105b098899,task-2z3l,abx,717,buttonB,Second,1,voice_09_clone_060.mp3,voice_09_human_060.mp3,NA,9,clone,human,Female,32,United Kingdom,2025-05-14T09:48:23.654000Z,1821,164,"Yorkshire and the Humber, England (East Riding, North Lincolnshire and Yorkshire)"
100,133,6773d0e0861b7f105b098899,task-2z3l,abx,2377.7,buttonA,First,1,voice_12_human_060.mp3,voice_12_clone_060.mp3,NA,12,human,clone,Female,32,United Kingdom,2025-05-14T09:48:23.654000Z,1821,164,"Yorkshire and the Humber, England (East Riding, North Lincolnshire and Yorkshire)"
101,136,6773d0e0861b7f105b098899,task-2z3l,abx,424.5,buttonB,Second,1,voice_06_clone_060.mp3,voice_06_human_060.mp3,NA,6,clone,human,Female,32,United Kingdom,2025-05-14T09:48:23.654000Z,1821,164,"Yorkshire and the Humber, England (East Riding, North Lincolnshire and Yorkshire)"
102,137,6773d0e0861b7f105b098899,task-2z3l,abx,922.6,buttonB,Second,1,voice_10_clone_060.mp3,voice_10_human_060.mp3,NA,10,clone,human,Female,32,United Kingdom,2025-05-14T09:48:23.654000Z,1821,164,"Yorkshire and the Humber, England (East Riding, North Lincolnshire and Yorkshire)"
103,138,6773d0e0861b7f105b098899,task-2z3l,abx,560.4,buttonB,Second,1,voice_04_clone_060.mp3,voice_04_human_060.mp3,NA,4,clone,human,Female,32,United Kingdom,2025-05-14T09:48:23.654000Z,1821,164,"Yorkshire and the Humber, England (East Riding, North Lincolnshire and Yorkshire)"
104,139,6773d0e0861b7f105b098899,task-2z3l,abx,522.5,buttonA,First,1,voice_06_human_060.mp3,voice_06_clone_060.mp3,NA,6,human,clone,Female,32,United Kingdom,2025-05-14T09:48:23.654000Z,1821,164,"Yorkshire and the Humber, England (East Riding, North Lincolnshire and Yorkshire)"
105,140,6773d0e0861b7f105b098899,task-2z3l,abx,400.2,buttonB,Second,1,voice_12_clone_060.mp3,voice_12_human_060.mp3,NA,12,clone,human,Female,32,United Kingdom,2025-05-14T09:48:23.654000Z,1821,164,"Yorkshire and the Humber, England (East Riding, North Lincolnshire and Yorkshire)"
106,141,672367820c8403df2eadd46c,task-2z3l,abx,1745.4,buttonB,Second,1,voice_12_clone_060.mp3,voice_12_human_060.mp3,NA,12,clone,human,Female,19,United Kingdom,2025-05-14T10:58:14.210000Z,2119,178,"South West, England (Gloucestershire, Wiltshire and Bristol/Bath area, Dorset and Somerset, Cornwall and Isles of Scilly, Devon)"
107,142,672367820c8403df2eadd46c,task-2z3l,abx,1754.3,buttonA,First,1,voice_12_human_060.mp3,voice_12_clone_060.mp3,NA,12,human,clone,Female,19,United Kingdom,2025-05-14T10:58:14.210000Z,2119,178,"South West, England (Gloucestershire, Wiltshire and Bristol/Bath area, Dorset and Somerset, Cornwall and Isles of Scilly, Devon)"
108,143,672367820c8403df2eadd46c,task-2z3l,abx,1425.5,buttonB,Second,1,voice_01_clone_060.mp3,voice_01_human_060.mp3,NA,1,clone,human,Female,19,United Kingdom,2025-05-14T10:58:14.210000Z,2119,178,"South West, England (Gloucestershire, Wiltshire and Bristol/Bath area, Dorset and Somerset, Cornwall and Isles of Scilly, Devon)"
109,147,672367820c8403df2eadd46c,task-2z3l,abx,889.7,buttonB,Second,1,voice_06_clone_060.mp3,voice_06_human_060.mp3,NA,6,clone,human,Female,19,United Kingdom,2025-05-14T10:58:14.210000Z,2119,178,"South West, England (Gloucestershire, Wiltshire and Bristol/Bath area, Dorset and Somerset, Cornwall and Isles of Scilly, Devon)"
110,150,672367820c8403df2eadd46c,task-2z3l,abx,2310.4,buttonB,Second,1,voice_04_clone_060.mp3,voice_04_human_060.mp3,NA,4,clone,human,Female,19,United Kingdom,2025-05-14T10:58:14.210000Z,2119,178,"South West, England (Gloucestershire, Wiltshire and Bristol/Bath area, Dorset and Somerset, Cornwall and Isles of Scilly, Devon)"
111,151,672367820c8403df2eadd46c,task-2z3l,abx,2889.2,buttonA,First,1,voice_08_human_060.mp3,voice_08_clone_060.mp3,NA,8,human,clone,Female,19,United Kingdom,2025-05-14T10:58:14.210000Z,2119,178,"South West, England (Gloucestershire, Wiltshire and Bristol/Bath area, Dorset and Somerset, Cornwall and Isles of Scilly, Devon)"
112,153,672367820c8403df2eadd46c,task-2z3l,abx,1237.9,buttonB,Second,1,voice_10_clone_060.mp3,voice_10_human_060.mp3,NA,10,clone,human,Female,19,United Kingdom,2025-05-14T10:58:14.210000Z,2119,178,"South West, England (Gloucestershire, Wiltshire and Bristol/Bath area, Dorset and Somerset, Cornwall and Isles of Scilly, Devon)"
113,155,672367820c8403df2eadd46c,task-2z3l,abx,1011.3,buttonA,First,1,voice_10_human_060.mp3,voice_10_clone_060.mp3,NA,10,human,clone,Female,19,United Kingdom,2025-05-14T10:58:14.210000Z,2119,178,"South West, England (Gloucestershire, Wiltshire and Bristol/Bath area, Dorset and Somerset, Cornwall and Isles of Scilly, Devon)"
114,156,672367820c8403df2eadd46c,task-2z3l,abx,619.7,buttonB,Second,1,voice_08_clone_060.mp3,voice_08_human_060.mp3,NA,8,clone,human,Female,19,United Kingdom,2025-05-14T10:58:14.210000Z,2119,178,"South West, England (Gloucestershire, Wiltshire and Bristol/Bath area, Dorset and Somerset, Cornwall and Isles of Scilly, Devon)"
115,157,672367820c8403df2eadd46c,task-2z3l,abx,1052,buttonA,First,1,voice_11_human_060.mp3,voice_11_clone_060.mp3,NA,11,human,clone,Female,19,United Kingdom,2025-05-14T10:58:14.210000Z,2119,178,"South West, England (Gloucestershire, Wiltshire and Bristol/Bath area, Dorset and Somerset, Cornwall and Isles of Scilly, Devon)"
116,160,672367820c8403df2eadd46c,task-2z3l,abx,1220.6,buttonA,First,1,voice_03_human_060.mp3,voice_03_clone_060.mp3,NA,3,human,clone,Female,19,United Kingdom,2025-05-14T10:58:14.210000Z,2119,178,"South West, England (Gloucestershire, Wiltshire and Bristol/Bath area, Dorset and Somerset, Cornwall and Isles of Scilly, Devon)"
117,162,676178f87c5aaf861d4f556c,task-2z3l,abx,1210,buttonA,First,1,voice_01_human_060.mp3,voice_01_clone_060.mp3,NA,1,human,clone,Female,21,United Kingdom,2025-05-14T12:50:12.367000Z,2092,7,"North West, England (Cumbria, Greater Manchester, Lancashire, Merseyside)"
118,163,676178f87c5aaf861d4f556c,task-2z3l,abx,759,buttonA,First,1,voice_11_human_060.mp3,voice_11_clone_060.mp3,NA,11,human,clone,Female,21,United Kingdom,2025-05-14T12:50:12.367000Z,2092,7,"North West, England (Cumbria, Greater Manchester, Lancashire, Merseyside)"
119,164,676178f87c5aaf861d4f556c,task-2z3l,abx,726,buttonA,First,1,voice_12_human_060.mp3,voice_12_clone_060.mp3,NA,12,human,clone,Female,21,United Kingdom,2025-05-14T12:50:12.367000Z,2092,7,"North West, England (Cumbria, Greater Manchester, Lancashire, Merseyside)"
120,165,676178f87c5aaf861d4f556c,task-2z3l,abx,1679,buttonA,First,1,voice_09_human_060.mp3,voice_09_clone_060.mp3,NA,9,human,clone,Female,21,United Kingdom,2025-05-14T12:50:12.367000Z,2092,7,"North West, England (Cumbria, Greater Manchester, Lancashire, Merseyside)"
121,166,676178f87c5aaf861d4f556c,task-2z3l,abx,929,buttonB,Second,1,voice_04_clone_060.mp3,voice_04_human_060.mp3,NA,4,clone,human,Female,21,United Kingdom,2025-05-14T12:50:12.367000Z,2092,7,"North West, England (Cumbria, Greater Manchester, Lancashire, Merseyside)"
122,167,676178f87c5aaf861d4f556c,task-2z3l,abx,796,buttonB,Second,1,voice_09_clone_060.mp3,voice_09_human_060.mp3,NA,9,clone,human,Female,21,United Kingdom,2025-05-14T12:50:12.367000Z,2092,7,"North West, England (Cumbria, Greater Manchester, Lancashire, Merseyside)"
123,170,676178f87c5aaf861d4f556c,task-2z3l,abx,733,buttonB,Second,1,voice_12_clone_060.mp3,voice_12_human_060.mp3,NA,12,clone,human,Female,21,United Kingdom,2025-05-14T12:50:12.367000Z,2092,7,"North West, England (Cumbria, Greater Manchester, Lancashire, Merseyside)"
124,175,676178f87c5aaf861d4f556c,task-2z3l,abx,648,buttonA,First,1,voice_08_human_060.mp3,voice_08_clone_060.mp3,NA,8,human,clone,Female,21,United Kingdom,2025-05-14T12:50:12.367000Z,2092,7,"North West, England (Cumbria, Greater Manchester, Lancashire, Merseyside)"
125,178,676178f87c5aaf861d4f556c,task-2z3l,abx,632,buttonB,Second,1,voice_07_clone_060.mp3,voice_07_human_060.mp3,NA,7,clone,human,Female,21,United Kingdom,2025-05-14T12:50:12.367000Z,2092,7,"North West, England (Cumbria, Greater Manchester, Lancashire, Merseyside)"
126,179,676178f87c5aaf861d4f556c,task-2z3l,abx,1023,buttonA,First,1,voice_04_human_060.mp3,voice_04_clone_060.mp3,NA,4,human,clone,Female,21,United Kingdom,2025-05-14T12:50:12.367000Z,2092,7,"North West, England (Cumbria, Greater Manchester, Lancashire, Merseyside)"
127,180,676178f87c5aaf861d4f556c,task-2z3l,abx,611,buttonA,First,1,voice_10_human_060.mp3,voice_10_clone_060.mp3,NA,10,human,clone,Female,21,United Kingdom,2025-05-14T12:50:12.367000Z,2092,7,"North West, England (Cumbria, Greater Manchester, Lancashire, Merseyside)"
128,184,67e19f44ba489abd4e850452,task-2z3l,abx,639.1999989,buttonA,First,1,voice_09_human_060.mp3,voice_09_clone_060.mp3,NA,9,human,clone,Female,19,United Kingdom,2025-05-14T15:24:42.760000Z,1801,111,"South East, England (Berkshire, Buckinghamshire, and Oxfordshire, Surrey, Sussex, Kent, Hampshire and Isle of Wight)"
129,186,67e19f44ba489abd4e850452,task-2z3l,abx,2340.9,buttonB,Second,1,voice_03_clone_060.mp3,voice_03_human_060.mp3,NA,3,clone,human,Female,19,United Kingdom,2025-05-14T15:24:42.760000Z,1801,111,"South East, England (Berkshire, Buckinghamshire, and Oxfordshire, Surrey, Sussex, Kent, Hampshire and Isle of Wight)"
130,187,67e19f44ba489abd4e850452,task-2z3l,abx,1083.5,buttonA,First,1,voice_07_human_060.mp3,voice_07_clone_060.mp3,NA,7,human,clone,Female,19,United Kingdom,2025-05-14T15:24:42.760000Z,1801,111,"South East, England (Berkshire, Buckinghamshire, and Oxfordshire, Surrey, Sussex, Kent, Hampshire and Isle of Wight)"
131,188,67e19f44ba489abd4e850452,task-2z3l,abx,1136.200001,buttonA,First,1,voice_08_human_060.mp3,voice_08_clone_060.mp3,NA,8,human,clone,Female,19,United Kingdom,2025-05-14T15:24:42.760000Z,1801,111,"South East, England (Berkshire, Buckinghamshire, and Oxfordshire, Surrey, Sussex, Kent, Hampshire and Isle of Wight)"
132,189,67e19f44ba489abd4e850452,task-2z3l,abx,1354.5,buttonA,First,1,voice_06_human_060.mp3,voice_06_clone_060.mp3,NA,6,human,clone,Female,19,United Kingdom,2025-05-14T15:24:42.760000Z,1801,111,"South East, England (Berkshire, Buckinghamshire, and Oxfordshire, Surrey, Sussex, Kent, Hampshire and Isle of Wight)"
133,190,67e19f44ba489abd4e850452,task-2z3l,abx,655.5,buttonB,Second,1,voice_01_clone_060.mp3,voice_01_human_060.mp3,NA,1,clone,human,Female,19,United Kingdom,2025-05-14T15:24:42.760000Z,1801,111,"South East, England (Berkshire, Buckinghamshire, and Oxfordshire, Surrey, Sussex, Kent, Hampshire and Isle of Wight)"
134,192,67e19f44ba489abd4e850452,task-2z3l,abx,1404.799999,buttonA,First,1,voice_12_human_060.mp3,voice_12_clone_060.mp3,NA,12,human,clone,Female,19,United Kingdom,2025-05-14T15:24:42.760000Z,1801,111,"South East, England (Berkshire, Buckinghamshire, and Oxfordshire, Surrey, Sussex, Kent, Hampshire and Isle of Wight)"
135,193,67e19f44ba489abd4e850452,task-2z3l,abx,494.0999985,buttonA,First,1,voice_11_human_060.mp3,voice_11_clone_060.mp3,NA,11,human,clone,Female,19,United Kingdom,2025-05-14T15:24:42.760000Z,1801,111,"South East, England (Berkshire, Buckinghamshire, and Oxfordshire, Surrey, Sussex, Kent, Hampshire and Isle of Wight)"
136,194,67e19f44ba489abd4e850452,task-2z3l,abx,562.6999989,buttonA,First,1,voice_01_human_060.mp3,voice_01_clone_060.mp3,NA,1,human,clone,Female,19,United Kingdom,2025-05-14T15:24:42.760000Z,1801,111,"South East, England (Berkshire, Buckinghamshire, and Oxfordshire, Surrey, Sussex, Kent, Hampshire and Isle of Wight)"
137,195,67e19f44ba489abd4e850452,task-2z3l,abx,597.6999989,buttonB,Second,1,voice_06_clone_060.mp3,voice_06_human_060.mp3,NA,6,clone,human,Female,19,United Kingdom,2025-05-14T15:24:42.760000Z,1801,111,"South East, England (Berkshire, Buckinghamshire, and Oxfordshire, Surrey, Sussex, Kent, Hampshire and Isle of Wight)"
138,196,67e19f44ba489abd4e850452,task-2z3l,abx,688.6999989,buttonB,Second,1,voice_07_clone_060.mp3,voice_07_human_060.mp3,NA,7,clone,human,Female,19,United Kingdom,2025-05-14T15:24:42.760000Z,1801,111,"South East, England (Berkshire, Buckinghamshire, and Oxfordshire, Surrey, Sussex, Kent, Hampshire and Isle of Wight)"
139,197,67e19f44ba489abd4e850452,task-2z3l,abx,518.6999989,buttonB,Second,1,voice_12_clone_060.mp3,voice_12_human_060.mp3,NA,12,clone,human,Female,19,United Kingdom,2025-05-14T15:24:42.760000Z,1801,111,"South East, England (Berkshire, Buckinghamshire, and Oxfordshire, Surrey, Sussex, Kent, Hampshire and Isle of Wight)"
140,198,67e19f44ba489abd4e850452,task-2z3l,abx,569.8999996,buttonB,Second,1,voice_08_clone_060.mp3,voice_08_human_060.mp3,NA,8,clone,human,Female,19,United Kingdom,2025-05-14T15:24:42.760000Z,1801,111,"South East, England (Berkshire, Buckinghamshire, and Oxfordshire, Surrey, Sussex, Kent, Hampshire and Isle of Wight)"
141,199,67e19f44ba489abd4e850452,task-2z3l,abx,1236,buttonA,First,1,voice_04_human_060.mp3,voice_04_clone_060.mp3,NA,4,human,clone,Female,19,United Kingdom,2025-05-14T15:24:42.760000Z,1801,111,"South East, England (Berkshire, Buckinghamshire, and Oxfordshire, Surrey, Sussex, Kent, Hampshire and Isle of Wight)"
142,200,67e19f44ba489abd4e850452,task-2z3l,abx,1138.5,buttonB,Second,1,voice_09_clone_060.mp3,voice_09_human_060.mp3,NA,9,clone,human,Female,19,United Kingdom,2025-05-14T15:24:42.760000Z,1801,111,"South East, England (Berkshire, Buckinghamshire, and Oxfordshire, Surrey, Sussex, Kent, Hampshire and Isle of Wight)"
143,2,666212dc756d64393da30b76,task-2z3l,abx,1601,buttonA,First,1,voice_11_human_060.mp3,voice_11_clone_060.mp3,NA,11,human,clone,Male,24,United Kingdom,2025-05-26T15:02:40.915000Z,1585,90,"East of England (East Anglia, Bedfordshire and Hertfordshire, Essex)"
144,3,666212dc756d64393da30b76,task-2z3l,abx,1903.4,buttonB,Second,1,voice_01_clone_060.mp3,voice_01_human_060.mp3,NA,1,clone,human,Male,24,United Kingdom,2025-05-26T15:02:40.915000Z,1585,90,"East of England (East Anglia, Bedfordshire and Hertfordshire, Essex)"
145,4,666212dc756d64393da30b76,task-2z3l,abx,1399.5,buttonB,Second,1,voice_09_clone_060.mp3,voice_09_human_060.mp3,NA,9,clone,human,Male,24,United Kingdom,2025-05-26T15:02:40.915000Z,1585,90,"East of England (East Anglia, Bedfordshire and Hertfordshire, Essex)"
146,5,666212dc756d64393da30b76,task-2z3l,abx,2386,buttonB,Second,1,voice_12_clone_060.mp3,voice_12_human_060.mp3,NA,12,clone,human,Male,24,United Kingdom,2025-05-26T15:02:40.915000Z,1585,90,"East of England (East Anglia, Bedfordshire and Hertfordshire, Essex)"
147,6,666212dc756d64393da30b76,task-2z3l,abx,1514.2,buttonB,Second,1,voice_06_clone_060.mp3,voice_06_human_060.mp3,NA,6,clone,human,Male,24,United Kingdom,2025-05-26T15:02:40.915000Z,1585,90,"East of England (East Anglia, Bedfordshire and Hertfordshire, Essex)"
148,7,666212dc756d64393da30b76,task-2z3l,abx,1737,buttonB,Second,1,voice_10_clone_060.mp3,voice_10_human_060.mp3,NA,10,clone,human,Male,24,United Kingdom,2025-05-26T15:02:40.915000Z,1585,90,"East of England (East Anglia, Bedfordshire and Hertfordshire, Essex)"
149,8,666212dc756d64393da30b76,task-2z3l,abx,528,buttonB,Second,1,voice_08_clone_060.mp3,voice_08_human_060.mp3,NA,8,clone,human,Male,24,United Kingdom,2025-05-26T15:02:40.915000Z,1585,90,"East of England (East Anglia, Bedfordshire and Hertfordshire, Essex)"
150,9,666212dc756d64393da30b76,task-2z3l,abx,621,buttonA,First,1,voice_12_human_060.mp3,voice_12_clone_060.mp3,NA,12,human,clone,Male,24,United Kingdom,2025-05-26T15:02:40.915000Z,1585,90,"East of England (East Anglia, Bedfordshire and Hertfordshire, Essex)"
151,11,666212dc756d64393da30b76,task-2z3l,abx,1102.7,buttonA,First,1,voice_07_human_060.mp3,voice_07_clone_060.mp3,NA,7,human,clone,Male,24,United Kingdom,2025-05-26T15:02:40.915000Z,1585,90,"East of England (East Anglia, Bedfordshire and Hertfordshire, Essex)"
152,12,666212dc756d64393da30b76,task-2z3l,abx,1506.3,buttonA,First,1,voice_09_human_060.mp3,voice_09_clone_060.mp3,NA,9,human,clone,Male,24,United Kingdom,2025-05-26T15:02:40.915000Z,1585,90,"East of England (East Anglia, Bedfordshire and Hertfordshire, Essex)"
153,13,666212dc756d64393da30b76,task-2z3l,abx,964.9,buttonB,Second,1,voice_07_clone_060.mp3,voice_07_human_060.mp3,NA,7,clone,human,Male,24,United Kingdom,2025-05-26T15:02:40.915000Z,1585,90,"East of England (East Anglia, Bedfordshire and Hertfordshire, Essex)"
154,14,666212dc756d64393da30b76,task-2z3l,abx,3014.5,buttonA,First,1,voice_03_human_060.mp3,voice_03_clone_060.mp3,NA,3,human,clone,Male,24,United Kingdom,2025-05-26T15:02:40.915000Z,1585,90,"East of England (East Anglia, Bedfordshire and Hertfordshire, Essex)"
155,15,666212dc756d64393da30b76,task-2z3l,abx,1484,buttonA,First,1,voice_01_human_060.mp3,voice_01_clone_060.mp3,NA,1,human,clone,Male,24,United Kingdom,2025-05-26T15:02:40.915000Z,1585,90,"East of England (East Anglia, Bedfordshire and Hertfordshire, Essex)"
156,16,666212dc756d64393da30b76,task-2z3l,abx,576.9,buttonB,Second,1,voice_03_clone_060.mp3,voice_03_human_060.mp3,NA,3,clone,human,Male,24,United Kingdom,2025-05-26T15:02:40.915000Z,1585,90,"East of England (East Anglia, Bedfordshire and Hertfordshire, Essex)"
157,17,666212dc756d64393da30b76,task-2z3l,abx,370.7,buttonA,First,1,voice_06_human_060.mp3,voice_06_clone_060.mp3,NA,6,human,clone,Male,24,United Kingdom,2025-05-26T15:02:40.915000Z,1585,90,"East of England (East Anglia, Bedfordshire and Hertfordshire, Essex)"
158,18,666212dc756d64393da30b76,task-2z3l,abx,510.9,buttonB,Second,1,voice_04_clone_060.mp3,voice_04_human_060.mp3,NA,4,clone,human,Male,24,United Kingdom,2025-05-26T15:02:40.915000Z,1585,90,"East of England (East Anglia, Bedfordshire and Hertfordshire, Essex)"
159,20,666212dc756d64393da30b76,task-2z3l,abx,384.6,buttonA,First,1,voice_08_human_060.mp3,voice_08_clone_060.mp3,NA,8,human,clone,Male,24,United Kingdom,2025-05-26T15:02:40.915000Z,1585,90,"East of England (East Anglia, Bedfordshire and Hertfordshire, Essex)"
160,21,67727a80c7d8eee59166d596,task-2z3l,abx,2349.7,buttonA,First,1,voice_04_human_060.mp3,voice_04_clone_060.mp3,NA,4,human,clone,Male,35,United Kingdom,2025-05-26T15:15:55.297000Z,2250,118,"East of England (East Anglia, Bedfordshire and Hertfordshire, Essex)"
161,22,67727a80c7d8eee59166d596,task-2z3l,abx,1353.1,buttonB,Second,1,voice_08_clone_060.mp3,voice_08_human_060.mp3,NA,8,clone,human,Male,35,United Kingdom,2025-05-26T15:15:55.297000Z,2250,118,"East of England (East Anglia, Bedfordshire and Hertfordshire, Essex)"
162,23,67727a80c7d8eee59166d596,task-2z3l,abx,736.2,buttonA,First,1,voice_08_human_060.mp3,voice_08_clone_060.mp3,NA,8,human,clone,Male,35,United Kingdom,2025-05-26T15:15:55.297000Z,2250,118,"East of England (East Anglia, Bedfordshire and Hertfordshire, Essex)"
163,24,67727a80c7d8eee59166d596,task-2z3l,abx,836.3,buttonB,Second,1,voice_09_clone_060.mp3,voice_09_human_060.mp3,NA,9,clone,human,Male,35,United Kingdom,2025-05-26T15:15:55.297000Z,2250,118,"East of England (East Anglia, Bedfordshire and Hertfordshire, Essex)"
164,25,67727a80c7d8eee59166d596,task-2z3l,abx,950.9,buttonB,Second,1,voice_11_clone_060.mp3,voice_11_human_060.mp3,NA,11,clone,human,Male,35,United Kingdom,2025-05-26T15:15:55.297000Z,2250,118,"East of England (East Anglia, Bedfordshire and Hertfordshire, Essex)"
165,26,67727a80c7d8eee59166d596,task-2z3l,abx,1441.7,buttonB,Second,1,voice_04_clone_060.mp3,voice_04_human_060.mp3,NA,4,clone,human,Male,35,United Kingdom,2025-05-26T15:15:55.297000Z,2250,118,"East of England (East Anglia, Bedfordshire and Hertfordshire, Essex)"
166,27,67727a80c7d8eee59166d596,task-2z3l,abx,842.8,buttonA,First,1,voice_01_human_060.mp3,voice_01_clone_060.mp3,NA,1,human,clone,Male,35,United Kingdom,2025-05-26T15:15:55.297000Z,2250,118,"East of England (East Anglia, Bedfordshire and Hertfordshire, Essex)"
167,28,67727a80c7d8eee59166d596,task-2z3l,abx,659.6,buttonB,Second,1,voice_03_clone_060.mp3,voice_03_human_060.mp3,NA,3,clone,human,Male,35,United Kingdom,2025-05-26T15:15:55.297000Z,2250,118,"East of England (East Anglia, Bedfordshire and Hertfordshire, Essex)"
168,29,67727a80c7d8eee59166d596,task-2z3l,abx,1113.4,buttonA,First,1,voice_07_human_060.mp3,voice_07_clone_060.mp3,NA,7,human,clone,Male,35,United Kingdom,2025-05-26T15:15:55.297000Z,2250,118,"East of England (East Anglia, Bedfordshire and Hertfordshire, Essex)"
169,31,67727a80c7d8eee59166d596,task-2z3l,abx,883.6,buttonB,Second,1,voice_12_clone_060.mp3,voice_12_human_060.mp3,NA,12,clone,human,Male,35,United Kingdom,2025-05-26T15:15:55.297000Z,2250,118,"East of England (East Anglia, Bedfordshire and Hertfordshire, Essex)"
170,33,67727a80c7d8eee59166d596,task-2z3l,abx,688.3,buttonA,First,1,voice_11_human_060.mp3,voice_11_clone_060.mp3,NA,11,human,clone,Male,35,United Kingdom,2025-05-26T15:15:55.297000Z,2250,118,"East of England (East Anglia, Bedfordshire and Hertfordshire, Essex)"
171,34,67727a80c7d8eee59166d596,task-2z3l,abx,658,buttonB,Second,1,voice_07_clone_060.mp3,voice_07_human_060.mp3,NA,7,clone,human,Male,35,United Kingdom,2025-05-26T15:15:55.297000Z,2250,118,"East of England (East Anglia, Bedfordshire and Hertfordshire, Essex)"
172,37,67727a80c7d8eee59166d596,task-2z3l,abx,752.5,buttonB,Second,1,voice_06_clone_060.mp3,voice_06_human_060.mp3,NA,6,clone,human,Male,35,United Kingdom,2025-05-26T15:15:55.297000Z,2250,118,"East of England (East Anglia, Bedfordshire and Hertfordshire, Essex)"
173,39,67727a80c7d8eee59166d596,task-2z3l,abx,582.4,buttonA,First,1,voice_06_human_060.mp3,voice_06_clone_060.mp3,NA,6,human,clone,Male,35,United Kingdom,2025-05-26T15:15:55.297000Z,2250,118,"East of England (East Anglia, Bedfordshire and Hertfordshire, Essex)"
174,41,5a65ea8363394a000155745d,task-2z3l,abx,1020,buttonB,Second,1,voice_06_clone_060.mp3,voice_06_human_060.mp3,NA,6,clone,human,Male,32,United Kingdom,2025-05-26T15:24:27.864000Z,1978,67,"London, England "
175,42,5a65ea8363394a000155745d,task-2z3l,abx,1168,buttonA,First,1,voice_06_human_060.mp3,voice_06_clone_060.mp3,NA,6,human,clone,Male,32,United Kingdom,2025-05-26T15:24:27.864000Z,1978,67,"London, England "
176,43,5a65ea8363394a000155745d,task-2z3l,abx,1461,buttonA,First,1,voice_01_human_060.mp3,voice_01_clone_060.mp3,NA,1,human,clone,Male,32,United Kingdom,2025-05-26T15:24:27.864000Z,1978,67,"London, England "
177,44,5a65ea8363394a000155745d,task-2z3l,abx,1428,buttonB,Second,1,voice_08_clone_060.mp3,voice_08_human_060.mp3,NA,8,clone,human,Male,32,United Kingdom,2025-05-26T15:24:27.864000Z,1978,67,"London, England "
178,45,5a65ea8363394a000155745d,task-2z3l,abx,865,buttonB,Second,1,voice_01_clone_060.mp3,voice_01_human_060.mp3,NA,1,clone,human,Male,32,United Kingdom,2025-05-26T15:24:27.864000Z,1978,67,"London, England "
179,46,5a65ea8363394a000155745d,task-2z3l,abx,977,buttonA,First,1,voice_12_human_060.mp3,voice_12_clone_060.mp3,NA,12,human,clone,Male,32,United Kingdom,2025-05-26T15:24:27.864000Z,1978,67,"London, England "
180,47,5a65ea8363394a000155745d,task-2z3l,abx,1548,buttonA,First,1,voice_11_human_060.mp3,voice_11_clone_060.mp3,NA,11,human,clone,Male,32,United Kingdom,2025-05-26T15:24:27.864000Z,1978,67,"London, England "
181,48,5a65ea8363394a000155745d,task-2z3l,abx,2212,buttonA,First,1,voice_10_human_060.mp3,voice_10_clone_060.mp3,NA,10,human,clone,Male,32,United Kingdom,2025-05-26T15:24:27.864000Z,1978,67,"London, England "
182,49,5a65ea8363394a000155745d,task-2z3l,abx,3605,buttonB,Second,1,voice_12_clone_060.mp3,voice_12_human_060.mp3,NA,12,clone,human,Male,32,United Kingdom,2025-05-26T15:24:27.864000Z,1978,67,"London, England "
183,50,5a65ea8363394a000155745d,task-2z3l,abx,610,buttonA,First,1,voice_04_human_060.mp3,voice_04_clone_060.mp3,NA,4,human,clone,Male,32,United Kingdom,2025-05-26T15:24:27.864000Z,1978,67,"London, England "
184,51,5a65ea8363394a000155745d,task-2z3l,abx,695,buttonB,Second,1,voice_11_clone_060.mp3,voice_11_human_060.mp3,NA,11,clone,human,Male,32,United Kingdom,2025-05-26T15:24:27.864000Z,1978,67,"London, England "
185,54,5a65ea8363394a000155745d,task-2z3l,abx,929,buttonA,First,1,voice_09_human_060.mp3,voice_09_clone_060.mp3,NA,9,human,clone,Male,32,United Kingdom,2025-05-26T15:24:27.864000Z,1978,67,"London, England "
186,55,5a65ea8363394a000155745d,task-2z3l,abx,715,buttonB,Second,1,voice_04_clone_060.mp3,voice_04_human_060.mp3,NA,4,clone,human,Male,32,United Kingdom,2025-05-26T15:24:27.864000Z,1978,67,"London, England "
187,56,5a65ea8363394a000155745d,task-2z3l,abx,671,buttonA,First,1,voice_03_human_060.mp3,voice_03_clone_060.mp3,NA,3,human,clone,Male,32,United Kingdom,2025-05-26T15:24:27.864000Z,1978,67,"London, England "
188,57,5a65ea8363394a000155745d,task-2z3l,abx,902,buttonB,Second,1,voice_09_clone_060.mp3,voice_09_human_060.mp3,NA,9,clone,human,Male,32,United Kingdom,2025-05-26T15:24:27.864000Z,1978,67,"London, England "
189,58,5a65ea8363394a000155745d,task-2z3l,abx,790,buttonA,First,1,voice_07_human_060.mp3,voice_07_clone_060.mp3,NA,7,human,clone,Male,32,United Kingdom,2025-05-26T15:24:27.864000Z,1978,67,"London, England "
190,59,5a65ea8363394a000155745d,task-2z3l,abx,840,buttonB,Second,1,voice_03_clone_060.mp3,voice_03_human_060.mp3,NA,3,clone,human,Male,32,United Kingdom,2025-05-26T15:24:27.864000Z,1978,67,"London, England "
191,60,5a65ea8363394a000155745d,task-2z3l,abx,592,buttonA,First,1,voice_08_human_060.mp3,voice_08_clone_060.mp3,NA,8,human,clone,Male,32,United Kingdom,2025-05-26T15:24:27.864000Z,1978,67,"London, England "
203,82,5f2209e824eef86962b50d8f,task-2z3l,abx,2298,buttonA,First,1,voice_06_human_060.mp3,voice_06_clone_060.mp3,NA,6,human,clone,Male,23,United Kingdom,2025-05-26T17:20:39.322000Z,2088,61,"North West, England (Cumbria, Greater Manchester, Lancashire, Merseyside)"
204,83,5f2209e824eef86962b50d8f,task-2z3l,abx,1598.6,buttonB,Second,1,voice_09_clone_060.mp3,voice_09_human_060.mp3,NA,9,clone,human,Male,23,United Kingdom,2025-05-26T17:20:39.322000Z,2088,61,"North West, England (Cumbria, Greater Manchester, Lancashire, Merseyside)"
205,85,5f2209e824eef86962b50d8f,task-2z3l,abx,4623.7,buttonA,First,1,voice_08_human_060.mp3,voice_08_clone_060.mp3,NA,8,human,clone,Male,23,United Kingdom,2025-05-26T17:20:39.322000Z,2088,61,"North West, England (Cumbria, Greater Manchester, Lancashire, Merseyside)"
206,86,5f2209e824eef86962b50d8f,task-2z3l,abx,2363.8,buttonB,Second,1,voice_06_clone_060.mp3,voice_06_human_060.mp3,NA,6,clone,human,Male,23,United Kingdom,2025-05-26T17:20:39.322000Z,2088,61,"North West, England (Cumbria, Greater Manchester, Lancashire, Merseyside)"
207,87,5f2209e824eef86962b50d8f,task-2z3l,abx,788.2,buttonA,First,1,voice_04_human_060.mp3,voice_04_clone_060.mp3,NA,4,human,clone,Male,23,United Kingdom,2025-05-26T17:20:39.322000Z,2088,61,"North West, England (Cumbria, Greater Manchester, Lancashire, Merseyside)"
208,89,5f2209e824eef86962b50d8f,task-2z3l,abx,1886.4,buttonA,First,1,voice_12_human_060.mp3,voice_12_clone_060.mp3,NA,12,human,clone,Male,23,United Kingdom,2025-05-26T17:20:39.322000Z,2088,61,"North West, England (Cumbria, Greater Manchester, Lancashire, Merseyside)"
209,90,5f2209e824eef86962b50d8f,task-2z3l,abx,4404.8,buttonB,Second,1,voice_01_clone_060.mp3,voice_01_human_060.mp3,NA,1,clone,human,Male,23,United Kingdom,2025-05-26T17:20:39.322000Z,2088,61,"North West, England (Cumbria, Greater Manchester, Lancashire, Merseyside)"
210,91,5f2209e824eef86962b50d8f,task-2z3l,abx,1418.8,buttonB,Second,1,voice_03_clone_060.mp3,voice_03_human_060.mp3,NA,3,clone,human,Male,23,United Kingdom,2025-05-26T17:20:39.322000Z,2088,61,"North West, England (Cumbria, Greater Manchester, Lancashire, Merseyside)"
211,92,5f2209e824eef86962b50d8f,task-2z3l,abx,1857,buttonB,Second,1,voice_08_clone_060.mp3,voice_08_human_060.mp3,NA,8,clone,human,Male,23,United Kingdom,2025-05-26T17:20:39.322000Z,2088,61,"North West, England (Cumbria, Greater Manchester, Lancashire, Merseyside)"
212,93,5f2209e824eef86962b50d8f,task-2z3l,abx,1541.6,buttonA,First,1,voice_09_human_060.mp3,voice_09_clone_060.mp3,NA,9,human,clone,Male,23,United Kingdom,2025-05-26T17:20:39.322000Z,2088,61,"North West, England (Cumbria, Greater Manchester, Lancashire, Merseyside)"
213,94,5f2209e824eef86962b50d8f,task-2z3l,abx,632.4,buttonB,Second,1,voice_04_clone_060.mp3,voice_04_human_060.mp3,NA,4,clone,human,Male,23,United Kingdom,2025-05-26T17:20:39.322000Z,2088,61,"North West, England (Cumbria, Greater Manchester, Lancashire, Merseyside)"
214,95,5f2209e824eef86962b50d8f,task-2z3l,abx,1932,buttonA,First,1,voice_01_human_060.mp3,voice_01_clone_060.mp3,NA,1,human,clone,Male,23,United Kingdom,2025-05-26T17:20:39.322000Z,2088,61,"North West, England (Cumbria, Greater Manchester, Lancashire, Merseyside)"
215,98,5f2209e824eef86962b50d8f,task-2z3l,abx,774.8,buttonB,Second,1,voice_11_clone_060.mp3,voice_11_human_060.mp3,NA,11,clone,human,Male,23,United Kingdom,2025-05-26T17:20:39.322000Z,2088,61,"North West, England (Cumbria, Greater Manchester, Lancashire, Merseyside)"
216,100,5f2209e824eef86962b50d8f,task-2z3l,abx,1664.6,buttonB,Second,1,voice_12_clone_060.mp3,voice_12_human_060.mp3,NA,12,clone,human,Male,23,United Kingdom,2025-05-26T17:20:39.322000Z,2088,61,"North West, England (Cumbria, Greater Manchester, Lancashire, Merseyside)"
217,102,{{67a96562e2b052e6c15ed963}},task-2z3l,abx,834.5,buttonB,Second,1,voice_04_clone_060.mp3,voice_04_human_060.mp3,NA,4,clone,human,NA,NA,NA,NA,NA,NA,NA
218,103,{{67a96562e2b052e6c15ed963}},task-2z3l,abx,1844.3,buttonA,First,1,voice_01_human_060.mp3,voice_01_clone_060.mp3,NA,1,human,clone,NA,NA,NA,NA,NA,NA,NA
219,104,{{67a96562e2b052e6c15ed963}},task-2z3l,abx,1115.2,buttonA,First,1,voice_04_human_060.mp3,voice_04_clone_060.mp3,NA,4,human,clone,NA,NA,NA,NA,NA,NA,NA
220,105,{{67a96562e2b052e6c15ed963}},task-2z3l,abx,4965.9,buttonB,Second,1,voice_03_clone_060.mp3,voice_03_human_060.mp3,NA,3,clone,human,NA,NA,NA,NA,NA,NA,NA
221,107,{{67a96562e2b052e6c15ed963}},task-2z3l,abx,1961.7,buttonB,Second,1,voice_12_clone_060.mp3,voice_12_human_060.mp3,NA,12,clone,human,NA,NA,NA,NA,NA,NA,NA
222,109,{{67a96562e2b052e6c15ed963}},task-2z3l,abx,1908.6,buttonB,Second,1,voice_11_clone_060.mp3,voice_11_human_060.mp3,NA,11,clone,human,NA,NA,NA,NA,NA,NA,NA
223,110,{{67a96562e2b052e6c15ed963}},task-2z3l,abx,2925,buttonB,Second,1,voice_08_clone_060.mp3,voice_08_human_060.mp3,NA,8,clone,human,NA,NA,NA,NA,NA,NA,NA
224,111,{{67a96562e2b052e6c15ed963}},task-2z3l,abx,709,buttonA,First,1,voice_12_human_060.mp3,voice_12_clone_060.mp3,NA,12,human,clone,NA,NA,NA,NA,NA,NA,NA
225,112,{{67a96562e2b052e6c15ed963}},task-2z3l,abx,1267.5,buttonB,Second,1,voice_06_clone_060.mp3,voice_06_human_060.mp3,NA,6,clone,human,NA,NA,NA,NA,NA,NA,NA
226,113,{{67a96562e2b052e6c15ed963}},task-2z3l,abx,653.6,buttonA,First,1,voice_11_human_060.mp3,voice_11_clone_060.mp3,NA,11,human,clone,NA,NA,NA,NA,NA,NA,NA
227,114,{{67a96562e2b052e6c15ed963}},task-2z3l,abx,472.9,buttonA,First,1,voice_09_human_060.mp3,voice_09_clone_060.mp3,NA,9,human,clone,NA,NA,NA,NA,NA,NA,NA
228,116,{{67a96562e2b052e6c15ed963}},task-2z3l,abx,3987.5,buttonB,Second,1,voice_09_clone_060.mp3,voice_09_human_060.mp3,NA,9,clone,human,NA,NA,NA,NA,NA,NA,NA
229,117,{{67a96562e2b052e6c15ed963}},task-2z3l,abx,339.7,buttonA,First,1,voice_08_human_060.mp3,voice_08_clone_060.mp3,NA,8,human,clone,NA,NA,NA,NA,NA,NA,NA
230,119,{{67a96562e2b052e6c15ed963}},task-2z3l,abx,3431.8,buttonA,First,1,voice_10_human_060.mp3,voice_10_clone_060.mp3,NA,10,human,clone,NA,NA,NA,NA,NA,NA,NA
231,121,6662d218ea91c53879306d23,task-2z3l,abx,800.7999992,buttonB,Second,1,voice_08_clone_060.mp3,voice_08_human_060.mp3,NA,8,clone,human,Male,28,United Kingdom,2025-05-26T19:31:09.584000Z,1702,96,"South East, England (Berkshire, Buckinghamshire, and Oxfordshire, Surrey, Sussex, Kent, Hampshire and Isle of Wight)"
232,123,6662d218ea91c53879306d23,task-2z3l,abx,1039.7,buttonB,Second,1,voice_03_clone_060.mp3,voice_03_human_060.mp3,NA,3,clone,human,Male,28,United Kingdom,2025-05-26T19:31:09.584000Z,1702,96,"South East, England (Berkshire, Buckinghamshire, and Oxfordshire, Surrey, Sussex, Kent, Hampshire and Isle of Wight)"
233,124,6662d218ea91c53879306d23,task-2z3l,abx,942.1000004,buttonA,First,1,voice_07_human_060.mp3,voice_07_clone_060.mp3,NA,7,human,clone,Male,28,United Kingdom,2025-05-26T19:31:09.584000Z,1702,96,"South East, England (Berkshire, Buckinghamshire, and Oxfordshire, Surrey, Sussex, Kent, Hampshire and Isle of Wight)"
234,125,6662d218ea91c53879306d23,task-2z3l,abx,882,buttonA,First,1,voice_08_human_060.mp3,voice_08_clone_060.mp3,NA,8,human,clone,Male,28,United Kingdom,2025-05-26T19:31:09.584000Z,1702,96,"South East, England (Berkshire, Buckinghamshire, and Oxfordshire, Surrey, Sussex, Kent, Hampshire and Isle of Wight)"
235,126,6662d218ea91c53879306d23,task-2z3l,abx,752.6999998,buttonA,First,1,voice_12_human_060.mp3,voice_12_clone_060.mp3,NA,12,human,clone,Male,28,United Kingdom,2025-05-26T19:31:09.584000Z,1702,96,"South East, England (Berkshire, Buckinghamshire, and Oxfordshire, Surrey, Sussex, Kent, Hampshire and Isle of Wight)"
236,127,6662d218ea91c53879306d23,task-2z3l,abx,1121,buttonA,First,1,voice_04_human_060.mp3,voice_04_clone_060.mp3,NA,4,human,clone,Male,28,United Kingdom,2025-05-26T19:31:09.584000Z,1702,96,"South East, England (Berkshire, Buckinghamshire, and Oxfordshire, Surrey, Sussex, Kent, Hampshire and Isle of Wight)"
237,128,6662d218ea91c53879306d23,task-2z3l,abx,1984.1,buttonA,First,1,voice_10_human_060.mp3,voice_10_clone_060.mp3,NA,10,human,clone,Male,28,United Kingdom,2025-05-26T19:31:09.584000Z,1702,96,"South East, England (Berkshire, Buckinghamshire, and Oxfordshire, Surrey, Sussex, Kent, Hampshire and Isle of Wight)"
238,130,6662d218ea91c53879306d23,task-2z3l,abx,667,buttonB,Second,1,voice_06_clone_060.mp3,voice_06_human_060.mp3,NA,6,clone,human,Male,28,United Kingdom,2025-05-26T19:31:09.584000Z,1702,96,"South East, England (Berkshire, Buckinghamshire, and Oxfordshire, Surrey, Sussex, Kent, Hampshire and Isle of Wight)"
239,131,6662d218ea91c53879306d23,task-2z3l,abx,679.7999992,buttonB,Second,1,voice_11_clone_060.mp3,voice_11_human_060.mp3,NA,11,clone,human,Male,28,United Kingdom,2025-05-26T19:31:09.584000Z,1702,96,"South East, England (Berkshire, Buckinghamshire, and Oxfordshire, Surrey, Sussex, Kent, Hampshire and Isle of Wight)"
240,132,6662d218ea91c53879306d23,task-2z3l,abx,555.6999998,buttonA,First,1,voice_09_human_060.mp3,voice_09_clone_060.mp3,NA,9,human,clone,Male,28,United Kingdom,2025-05-26T19:31:09.584000Z,1702,96,"South East, England (Berkshire, Buckinghamshire, and Oxfordshire, Surrey, Sussex, Kent, Hampshire and Isle of Wight)"
241,133,6662d218ea91c53879306d23,task-2z3l,abx,625.5999994,buttonB,Second,1,voice_01_clone_060.mp3,voice_01_human_060.mp3,NA,1,clone,human,Male,28,United Kingdom,2025-05-26T19:31:09.584000Z,1702,96,"South East, England (Berkshire, Buckinghamshire, and Oxfordshire, Surrey, Sussex, Kent, Hampshire and Isle of Wight)"
242,134,6662d218ea91c53879306d23,task-2z3l,abx,1030.5,buttonA,First,1,voice_01_human_060.mp3,voice_01_clone_060.mp3,NA,1,human,clone,Male,28,United Kingdom,2025-05-26T19:31:09.584000Z,1702,96,"South East, England (Berkshire, Buckinghamshire, and Oxfordshire, Surrey, Sussex, Kent, Hampshire and Isle of Wight)"
243,139,6662d218ea91c53879306d23,task-2z3l,abx,2888.4,buttonB,Second,1,voice_04_clone_060.mp3,voice_04_human_060.mp3,NA,4,clone,human,Male,28,United Kingdom,2025-05-26T19:31:09.584000Z,1702,96,"South East, England (Berkshire, Buckinghamshire, and Oxfordshire, Surrey, Sussex, Kent, Hampshire and Isle of Wight)"
244,140,6662d218ea91c53879306d23,task-2z3l,abx,647.8000002,buttonA,First,1,voice_06_human_060.mp3,voice_06_clone_060.mp3,NA,6,human,clone,Male,28,United Kingdom,2025-05-26T19:31:09.584000Z,1702,96,"South East, England (Berkshire, Buckinghamshire, and Oxfordshire, Surrey, Sussex, Kent, Hampshire and Isle of Wight)"
245,141,67606e5e00aaf43f68f7242c,task-2z3l,abx,2020.6,buttonA,First,1,voice_12_human_060.mp3,voice_12_clone_060.mp3,NA,12,human,clone,Male,27,United Kingdom,2025-05-26T19:36:41.421000Z,1815,148,"South East, England (Berkshire, Buckinghamshire, and Oxfordshire, Surrey, Sussex, Kent, Hampshire and Isle of Wight)"
246,142,67606e5e00aaf43f68f7242c,task-2z3l,abx,1686.8,buttonB,Second,1,voice_09_clone_060.mp3,voice_09_human_060.mp3,NA,9,clone,human,Male,27,United Kingdom,2025-05-26T19:36:41.421000Z,1815,148,"South East, England (Berkshire, Buckinghamshire, and Oxfordshire, Surrey, Sussex, Kent, Hampshire and Isle of Wight)"
247,144,67606e5e00aaf43f68f7242c,task-2z3l,abx,716.7,buttonB,Second,1,voice_08_clone_060.mp3,voice_08_human_060.mp3,NA,8,clone,human,Male,27,United Kingdom,2025-05-26T19:36:41.421000Z,1815,148,"South East, England (Berkshire, Buckinghamshire, and Oxfordshire, Surrey, Sussex, Kent, Hampshire and Isle of Wight)"
248,145,67606e5e00aaf43f68f7242c,task-2z3l,abx,607.3,buttonB,Second,1,voice_03_clone_060.mp3,voice_03_human_060.mp3,NA,3,clone,human,Male,27,United Kingdom,2025-05-26T19:36:41.421000Z,1815,148,"South East, England (Berkshire, Buckinghamshire, and Oxfordshire, Surrey, Sussex, Kent, Hampshire and Isle of Wight)"
249,146,67606e5e00aaf43f68f7242c,task-2z3l,abx,756.5,buttonB,Second,1,voice_01_clone_060.mp3,voice_01_human_060.mp3,NA,1,clone,human,Male,27,United Kingdom,2025-05-26T19:36:41.421000Z,1815,148,"South East, England (Berkshire, Buckinghamshire, and Oxfordshire, Surrey, Sussex, Kent, Hampshire and Isle of Wight)"
250,147,67606e5e00aaf43f68f7242c,task-2z3l,abx,350,buttonA,First,1,voice_11_human_060.mp3,voice_11_clone_060.mp3,NA,11,human,clone,Male,27,United Kingdom,2025-05-26T19:36:41.421000Z,1815,148,"South East, England (Berkshire, Buckinghamshire, and Oxfordshire, Surrey, Sussex, Kent, Hampshire and Isle of Wight)"
251,148,67606e5e00aaf43f68f7242c,task-2z3l,abx,1134.4,buttonA,First,1,voice_04_human_060.mp3,voice_04_clone_060.mp3,NA,4,human,clone,Male,27,United Kingdom,2025-05-26T19:36:41.421000Z,1815,148,"South East, England (Berkshire, Buckinghamshire, and Oxfordshire, Surrey, Sussex, Kent, Hampshire and Isle of Wight)"
252,149,67606e5e00aaf43f68f7242c,task-2z3l,abx,1958.3,buttonA,First,1,voice_03_human_060.mp3,voice_03_clone_060.mp3,NA,3,human,clone,Male,27,United Kingdom,2025-05-26T19:36:41.421000Z,1815,148,"South East, England (Berkshire, Buckinghamshire, and Oxfordshire, Surrey, Sussex, Kent, Hampshire and Isle of Wight)"
253,150,67606e5e00aaf43f68f7242c,task-2z3l,abx,614.4,buttonB,Second,1,voice_04_clone_060.mp3,voice_04_human_060.mp3,NA,4,clone,human,Male,27,United Kingdom,2025-05-26T19:36:41.421000Z,1815,148,"South East, England (Berkshire, Buckinghamshire, and Oxfordshire, Surrey, Sussex, Kent, Hampshire and Isle of Wight)"
254,151,67606e5e00aaf43f68f7242c,task-2z3l,abx,565.5,buttonA,First,1,voice_06_human_060.mp3,voice_06_clone_060.mp3,NA,6,human,clone,Male,27,United Kingdom,2025-05-26T19:36:41.421000Z,1815,148,"South East, England (Berkshire, Buckinghamshire, and Oxfordshire, Surrey, Sussex, Kent, Hampshire and Isle of Wight)"
255,152,67606e5e00aaf43f68f7242c,task-2z3l,abx,858.9,buttonB,Second,1,voice_11_clone_060.mp3,voice_11_human_060.mp3,NA,11,clone,human,Male,27,United Kingdom,2025-05-26T19:36:41.421000Z,1815,148,"South East, England (Berkshire, Buckinghamshire, and Oxfordshire, Surrey, Sussex, Kent, Hampshire and Isle of Wight)"
256,153,67606e5e00aaf43f68f7242c,task-2z3l,abx,485,buttonB,Second,1,voice_06_clone_060.mp3,voice_06_human_060.mp3,NA,6,clone,human,Male,27,United Kingdom,2025-05-26T19:36:41.421000Z,1815,148,"South East, England (Berkshire, Buckinghamshire, and Oxfordshire, Surrey, Sussex, Kent, Hampshire and Isle of Wight)"
257,154,67606e5e00aaf43f68f7242c,task-2z3l,abx,735.4,buttonA,First,1,voice_01_human_060.mp3,voice_01_clone_060.mp3,NA,1,human,clone,Male,27,United Kingdom,2025-05-26T19:36:41.421000Z,1815,148,"South East, England (Berkshire, Buckinghamshire, and Oxfordshire, Surrey, Sussex, Kent, Hampshire and Isle of Wight)"
258,155,67606e5e00aaf43f68f7242c,task-2z3l,abx,483,buttonA,First,1,voice_08_human_060.mp3,voice_08_clone_060.mp3,NA,8,human,clone,Male,27,United Kingdom,2025-05-26T19:36:41.421000Z,1815,148,"South East, England (Berkshire, Buckinghamshire, and Oxfordshire, Surrey, Sussex, Kent, Hampshire and Isle of Wight)"
259,156,67606e5e00aaf43f68f7242c,task-2z3l,abx,386,buttonB,Second,1,voice_12_clone_060.mp3,voice_12_human_060.mp3,NA,12,clone,human,Male,27,United Kingdom,2025-05-26T19:36:41.421000Z,1815,148,"South East, England (Berkshire, Buckinghamshire, and Oxfordshire, Surrey, Sussex, Kent, Hampshire and Isle of Wight)"
260,157,67606e5e00aaf43f68f7242c,task-2z3l,abx,640.5,buttonA,First,1,voice_09_human_060.mp3,voice_09_clone_060.mp3,NA,9,human,clone,Male,27,United Kingdom,2025-05-26T19:36:41.421000Z,1815,148,"South East, England (Berkshire, Buckinghamshire, and Oxfordshire, Surrey, Sussex, Kent, Hampshire and Isle of Wight)"
261,160,67606e5e00aaf43f68f7242c,task-2z3l,abx,1592.6,buttonB,Second,1,voice_07_clone_060.mp3,voice_07_human_060.mp3,NA,7,clone,human,Male,27,United Kingdom,2025-05-26T19:36:41.421000Z,1815,148,"South East, England (Berkshire, Buckinghamshire, and Oxfordshire, Surrey, Sussex, Kent, Hampshire and Isle of Wight)"
262,161,66d71860e9d1f0fe06dd5f25,task-2z3l,abx,637.6,buttonB,Second,1,voice_07_clone_060.mp3,voice_07_human_060.mp3,NA,7,clone,human,Male,25,United Kingdom,2025-05-26T20:53:48.591000Z,1724,107,"Yorkshire and the Humber, England (East Riding, North Lincolnshire and Yorkshire)"
263,162,66d71860e9d1f0fe06dd5f25,task-2z3l,abx,454.6,buttonB,Second,1,voice_08_clone_060.mp3,voice_08_human_060.mp3,NA,8,clone,human,Male,25,United Kingdom,2025-05-26T20:53:48.591000Z,1724,107,"Yorkshire and the Humber, England (East Riding, North Lincolnshire and Yorkshire)"
264,163,66d71860e9d1f0fe06dd5f25,task-2z3l,abx,936.9,buttonB,Second,1,voice_04_clone_060.mp3,voice_04_human_060.mp3,NA,4,clone,human,Male,25,United Kingdom,2025-05-26T20:53:48.591000Z,1724,107,"Yorkshire and the Humber, England (East Riding, North Lincolnshire and Yorkshire)"
265,164,66d71860e9d1f0fe06dd5f25,task-2z3l,abx,449.6,buttonA,First,1,voice_03_human_060.mp3,voice_03_clone_060.mp3,NA,3,human,clone,Male,25,United Kingdom,2025-05-26T20:53:48.591000Z,1724,107,"Yorkshire and the Humber, England (East Riding, North Lincolnshire and Yorkshire)"
266,165,66d71860e9d1f0fe06dd5f25,task-2z3l,abx,296.5,buttonA,First,1,voice_07_human_060.mp3,voice_07_clone_060.mp3,NA,7,human,clone,Male,25,United Kingdom,2025-05-26T20:53:48.591000Z,1724,107,"Yorkshire and the Humber, England (East Riding, North Lincolnshire and Yorkshire)"
267,166,66d71860e9d1f0fe06dd5f25,task-2z3l,abx,441.3,buttonB,Second,1,voice_01_clone_060.mp3,voice_01_human_060.mp3,NA,1,clone,human,Male,25,United Kingdom,2025-05-26T20:53:48.591000Z,1724,107,"Yorkshire and the Humber, England (East Riding, North Lincolnshire and Yorkshire)"
268,168,66d71860e9d1f0fe06dd5f25,task-2z3l,abx,396.3,buttonB,Second,1,voice_09_clone_060.mp3,voice_09_human_060.mp3,NA,9,clone,human,Male,25,United Kingdom,2025-05-26T20:53:48.591000Z,1724,107,"Yorkshire and the Humber, England (East Riding, North Lincolnshire and Yorkshire)"
269,170,66d71860e9d1f0fe06dd5f25,task-2z3l,abx,431,buttonB,Second,1,voice_06_clone_060.mp3,voice_06_human_060.mp3,NA,6,clone,human,Male,25,United Kingdom,2025-05-26T20:53:48.591000Z,1724,107,"Yorkshire and the Humber, England (East Riding, North Lincolnshire and Yorkshire)"
270,171,66d71860e9d1f0fe06dd5f25,task-2z3l,abx,503.2,buttonA,First,1,voice_01_human_060.mp3,voice_01_clone_060.mp3,NA,1,human,clone,Male,25,United Kingdom,2025-05-26T20:53:48.591000Z,1724,107,"Yorkshire and the Humber, England (East Riding, North Lincolnshire and Yorkshire)"
271,172,66d71860e9d1f0fe06dd5f25,task-2z3l,abx,425.1,buttonA,First,1,voice_11_human_060.mp3,voice_11_clone_060.mp3,NA,11,human,clone,Male,25,United Kingdom,2025-05-26T20:53:48.591000Z,1724,107,"Yorkshire and the Humber, England (East Riding, North Lincolnshire and Yorkshire)"
272,173,66d71860e9d1f0fe06dd5f25,task-2z3l,abx,347.8000001,buttonB,Second,1,voice_03_clone_060.mp3,voice_03_human_060.mp3,NA,3,clone,human,Male,25,United Kingdom,2025-05-26T20:53:48.591000Z,1724,107,"Yorkshire and the Humber, England (East Riding, North Lincolnshire and Yorkshire)"
273,175,66d71860e9d1f0fe06dd5f25,task-2z3l,abx,269.4,buttonA,First,1,voice_08_human_060.mp3,voice_08_clone_060.mp3,NA,8,human,clone,Male,25,United Kingdom,2025-05-26T20:53:48.591000Z,1724,107,"Yorkshire and the Humber, England (East Riding, North Lincolnshire and Yorkshire)"
274,177,66d71860e9d1f0fe06dd5f25,task-2z3l,abx,249.3000001,buttonA,First,1,voice_09_human_060.mp3,voice_09_clone_060.mp3,NA,9,human,clone,Male,25,United Kingdom,2025-05-26T20:53:48.591000Z,1724,107,"Yorkshire and the Humber, England (East Riding, North Lincolnshire and Yorkshire)"
275,180,66d71860e9d1f0fe06dd5f25,task-2z3l,abx,1550.2,buttonA,First,1,voice_10_human_060.mp3,voice_10_clone_060.mp3,NA,10,human,clone,Male,25,United Kingdom,2025-05-26T20:53:48.591000Z,1724,107,"Yorkshire and the Humber, England (East Riding, North Lincolnshire and Yorkshire)"
296,201,6764aac86a6be53265dfaed0,task-2z3l,abx,2849.9,buttonB,Second,1,voice_09_clone_060.mp3,voice_09_human_060.mp3,NA,9,clone,human,Male,27,United Kingdom,2025-05-27T00:57:11.272000Z,2351,67,"South East, England (Berkshire, Buckinghamshire, and Oxfordshire, Surrey, Sussex, Kent, Hampshire and Isle of Wight)"
297,202,6764aac86a6be53265dfaed0,task-2z3l,abx,654.5,buttonB,Second,1,voice_08_clone_060.mp3,voice_08_human_060.mp3,NA,8,clone,human,Male,27,United Kingdom,2025-05-27T00:57:11.272000Z,2351,67,"South East, England (Berkshire, Buckinghamshire, and Oxfordshire, Surrey, Sussex, Kent, Hampshire and Isle of Wight)"
298,203,6764aac86a6be53265dfaed0,task-2z3l,abx,6373.5,buttonB,Second,1,voice_07_clone_060.mp3,voice_07_human_060.mp3,NA,7,clone,human,Male,27,United Kingdom,2025-05-27T00:57:11.272000Z,2351,67,"South East, England (Berkshire, Buckinghamshire, and Oxfordshire, Surrey, Sussex, Kent, Hampshire and Isle of Wight)"
299,204,6764aac86a6be53265dfaed0,task-2z3l,abx,1094,buttonB,Second,1,voice_04_clone_060.mp3,voice_04_human_060.mp3,NA,4,clone,human,Male,27,United Kingdom,2025-05-27T00:57:11.272000Z,2351,67,"South East, England (Berkshire, Buckinghamshire, and Oxfordshire, Surrey, Sussex, Kent, Hampshire and Isle of Wight)"
300,205,6764aac86a6be53265dfaed0,task-2z3l,abx,1140.5,buttonB,Second,1,voice_01_clone_060.mp3,voice_01_human_060.mp3,NA,1,clone,human,Male,27,United Kingdom,2025-05-27T00:57:11.272000Z,2351,67,"South East, England (Berkshire, Buckinghamshire, and Oxfordshire, Surrey, Sussex, Kent, Hampshire and Isle of Wight)"
301,206,6764aac86a6be53265dfaed0,task-2z3l,abx,3527.3,buttonB,Second,1,voice_03_clone_060.mp3,voice_03_human_060.mp3,NA,3,clone,human,Male,27,United Kingdom,2025-05-27T00:57:11.272000Z,2351,67,"South East, England (Berkshire, Buckinghamshire, and Oxfordshire, Surrey, Sussex, Kent, Hampshire and Isle of Wight)"
302,207,6764aac86a6be53265dfaed0,task-2z3l,abx,1667.4,buttonA,First,1,voice_01_human_060.mp3,voice_01_clone_060.mp3,NA,1,human,clone,Male,27,United Kingdom,2025-05-27T00:57:11.272000Z,2351,67,"South East, England (Berkshire, Buckinghamshire, and Oxfordshire, Surrey, Sussex, Kent, Hampshire and Isle of Wight)"
303,209,6764aac86a6be53265dfaed0,task-2z3l,abx,2027.9,buttonB,Second,1,voice_12_clone_060.mp3,voice_12_human_060.mp3,NA,12,clone,human,Male,27,United Kingdom,2025-05-27T00:57:11.272000Z,2351,67,"South East, England (Berkshire, Buckinghamshire, and Oxfordshire, Surrey, Sussex, Kent, Hampshire and Isle of Wight)"
304,210,6764aac86a6be53265dfaed0,task-2z3l,abx,888.0999999,buttonA,First,1,voice_08_human_060.mp3,voice_08_clone_060.mp3,NA,8,human,clone,Male,27,United Kingdom,2025-05-27T00:57:11.272000Z,2351,67,"South East, England (Berkshire, Buckinghamshire, and Oxfordshire, Surrey, Sussex, Kent, Hampshire and Isle of Wight)"
305,211,6764aac86a6be53265dfaed0,task-2z3l,abx,2041.3,buttonA,First,1,voice_12_human_060.mp3,voice_12_clone_060.mp3,NA,12,human,clone,Male,27,United Kingdom,2025-05-27T00:57:11.272000Z,2351,67,"South East, England (Berkshire, Buckinghamshire, and Oxfordshire, Surrey, Sussex, Kent, Hampshire and Isle of Wight)"
306,212,6764aac86a6be53265dfaed0,task-2z3l,abx,3385.1,buttonA,First,1,voice_04_human_060.mp3,voice_04_clone_060.mp3,NA,4,human,clone,Male,27,United Kingdom,2025-05-27T00:57:11.272000Z,2351,67,"South East, England (Berkshire, Buckinghamshire, and Oxfordshire, Surrey, Sussex, Kent, Hampshire and Isle of Wight)"
307,213,6764aac86a6be53265dfaed0,task-2z3l,abx,2235,buttonA,First,1,voice_03_human_060.mp3,voice_03_clone_060.mp3,NA,3,human,clone,Male,27,United Kingdom,2025-05-27T00:57:11.272000Z,2351,67,"South East, England (Berkshire, Buckinghamshire, and Oxfordshire, Surrey, Sussex, Kent, Hampshire and Isle of Wight)"
308,214,6764aac86a6be53265dfaed0,task-2z3l,abx,1217,buttonA,First,1,voice_11_human_060.mp3,voice_11_clone_060.mp3,NA,11,human,clone,Male,27,United Kingdom,2025-05-27T00:57:11.272000Z,2351,67,"South East, England (Berkshire, Buckinghamshire, and Oxfordshire, Surrey, Sussex, Kent, Hampshire and Isle of Wight)"
309,215,6764aac86a6be53265dfaed0,task-2z3l,abx,2381.1,buttonB,Second,1,voice_10_clone_060.mp3,voice_10_human_060.mp3,NA,10,clone,human,Male,27,United Kingdom,2025-05-27T00:57:11.272000Z,2351,67,"South East, England (Berkshire, Buckinghamshire, and Oxfordshire, Surrey, Sussex, Kent, Hampshire and Isle of Wight)"
310,217,6764aac86a6be53265dfaed0,task-2z3l,abx,919.4,buttonA,First,1,voice_09_human_060.mp3,voice_09_clone_060.mp3,NA,9,human,clone,Male,27,United Kingdom,2025-05-27T00:57:11.272000Z,2351,67,"South East, England (Berkshire, Buckinghamshire, and Oxfordshire, Surrey, Sussex, Kent, Hampshire and Isle of Wight)"
311,219,6764aac86a6be53265dfaed0,task-2z3l,abx,756,buttonB,Second,1,voice_06_clone_060.mp3,voice_06_human_060.mp3,NA,6,clone,human,Male,27,United Kingdom,2025-05-27T00:57:11.272000Z,2351,67,"South East, England (Berkshire, Buckinghamshire, and Oxfordshire, Surrey, Sussex, Kent, Hampshire and Isle of Wight)"
312,220,6764aac86a6be53265dfaed0,task-2z3l,abx,1062.5,buttonA,First,1,voice_07_human_060.mp3,voice_07_clone_060.mp3,NA,7,human,clone,Male,27,United Kingdom,2025-05-27T00:57:11.272000Z,2351,67,"South East, England (Berkshire, Buckinghamshire, and Oxfordshire, Surrey, Sussex, Kent, Hampshire and Isle of Wight)"
313,1,6776fdc5d7a018d7d4b62f26,task-2z3l,abx,2843.8,buttonB,Second,1,voice_10_clone_060.mp3,voice_10_human_060.mp3,NA,10,clone,human,Female,31,United Kingdom,2025-05-27T08:44:39.769000Z,1889,98,"North East, England    (Tees Valley, Durham, Northumberland and Tyne and Wear)"
314,2,6776fdc5d7a018d7d4b62f26,task-2z3l,abx,2047.2,buttonB,Second,1,voice_07_clone_060.mp3,voice_07_human_060.mp3,NA,7,clone,human,Female,31,United Kingdom,2025-05-27T08:44:39.769000Z,1889,98,"North East, England    (Tees Valley, Durham, Northumberland and Tyne and Wear)"
315,3,6776fdc5d7a018d7d4b62f26,task-2z3l,abx,2133.7,buttonA,First,1,voice_12_human_060.mp3,voice_12_clone_060.mp3,NA,12,human,clone,Female,31,United Kingdom,2025-05-27T08:44:39.769000Z,1889,98,"North East, England    (Tees Valley, Durham, Northumberland and Tyne and Wear)"
316,4,6776fdc5d7a018d7d4b62f26,task-2z3l,abx,1198.4,buttonA,First,1,voice_08_human_060.mp3,voice_08_clone_060.mp3,NA,8,human,clone,Female,31,United Kingdom,2025-05-27T08:44:39.769000Z,1889,98,"North East, England    (Tees Valley, Durham, Northumberland and Tyne and Wear)"
317,5,6776fdc5d7a018d7d4b62f26,task-2z3l,abx,701.9,buttonA,First,1,voice_04_human_060.mp3,voice_04_clone_060.mp3,NA,4,human,clone,Female,31,United Kingdom,2025-05-27T08:44:39.769000Z,1889,98,"North East, England    (Tees Valley, Durham, Northumberland and Tyne and Wear)"
318,6,6776fdc5d7a018d7d4b62f26,task-2z3l,abx,1142.9,buttonB,Second,1,voice_08_clone_060.mp3,voice_08_human_060.mp3,NA,8,clone,human,Female,31,United Kingdom,2025-05-27T08:44:39.769000Z,1889,98,"North East, England    (Tees Valley, Durham, Northumberland and Tyne and Wear)"
319,7,6776fdc5d7a018d7d4b62f26,task-2z3l,abx,1246.9,buttonB,Second,1,voice_03_clone_060.mp3,voice_03_human_060.mp3,NA,3,clone,human,Female,31,United Kingdom,2025-05-27T08:44:39.769000Z,1889,98,"North East, England    (Tees Valley, Durham, Northumberland and Tyne and Wear)"
320,8,6776fdc5d7a018d7d4b62f26,task-2z3l,abx,1060.7,buttonB,Second,1,voice_12_clone_060.mp3,voice_12_human_060.mp3,NA,12,clone,human,Female,31,United Kingdom,2025-05-27T08:44:39.769000Z,1889,98,"North East, England    (Tees Valley, Durham, Northumberland and Tyne and Wear)"
321,9,6776fdc5d7a018d7d4b62f26,task-2z3l,abx,1378.9,buttonB,Second,1,voice_01_clone_060.mp3,voice_01_human_060.mp3,NA,1,clone,human,Female,31,United Kingdom,2025-05-27T08:44:39.769000Z,1889,98,"North East, England    (Tees Valley, Durham, Northumberland and Tyne and Wear)"
322,10,6776fdc5d7a018d7d4b62f26,task-2z3l,abx,819.3,buttonA,First,1,voice_01_human_060.mp3,voice_01_clone_060.mp3,NA,1,human,clone,Female,31,United Kingdom,2025-05-27T08:44:39.769000Z,1889,98,"North East, England    (Tees Valley, Durham, Northumberland and Tyne and Wear)"
323,11,6776fdc5d7a018d7d4b62f26,task-2z3l,abx,667.4,buttonA,First,1,voice_09_human_060.mp3,voice_09_clone_060.mp3,NA,9,human,clone,Female,31,United Kingdom,2025-05-27T08:44:39.769000Z,1889,98,"North East, England    (Tees Valley, Durham, Northumberland and Tyne and Wear)"
324,12,6776fdc5d7a018d7d4b62f26,task-2z3l,abx,1145.8,buttonA,First,1,voice_06_human_060.mp3,voice_06_clone_060.mp3,NA,6,human,clone,Female,31,United Kingdom,2025-05-27T08:44:39.769000Z,1889,98,"North East, England    (Tees Valley, Durham, Northumberland and Tyne and Wear)"
325,13,6776fdc5d7a018d7d4b62f26,task-2z3l,abx,719.9,buttonB,Second,1,voice_06_clone_060.mp3,voice_06_human_060.mp3,NA,6,clone,human,Female,31,United Kingdom,2025-05-27T08:44:39.769000Z,1889,98,"North East, England    (Tees Valley, Durham, Northumberland and Tyne and Wear)"
326,14,6776fdc5d7a018d7d4b62f26,task-2z3l,abx,810.1,buttonA,First,1,voice_10_human_060.mp3,voice_10_clone_060.mp3,NA,10,human,clone,Female,31,United Kingdom,2025-05-27T08:44:39.769000Z,1889,98,"North East, England    (Tees Valley, Durham, Northumberland and Tyne and Wear)"
327,15,6776fdc5d7a018d7d4b62f26,task-2z3l,abx,818,buttonB,Second,1,voice_09_clone_060.mp3,voice_09_human_060.mp3,NA,9,clone,human,Female,31,United Kingdom,2025-05-27T08:44:39.769000Z,1889,98,"North East, England    (Tees Valley, Durham, Northumberland and Tyne and Wear)"
328,16,6776fdc5d7a018d7d4b62f26,task-2z3l,abx,491.1,buttonA,First,1,voice_11_human_060.mp3,voice_11_clone_060.mp3,NA,11,human,clone,Female,31,United Kingdom,2025-05-27T08:44:39.769000Z,1889,98,"North East, England    (Tees Valley, Durham, Northumberland and Tyne and Wear)"
329,17,6776fdc5d7a018d7d4b62f26,task-2z3l,abx,2180.9,buttonA,First,1,voice_03_human_060.mp3,voice_03_clone_060.mp3,NA,3,human,clone,Female,31,United Kingdom,2025-05-27T08:44:39.769000Z,1889,98,"North East, England    (Tees Valley, Durham, Northumberland and Tyne and Wear)"
330,18,6776fdc5d7a018d7d4b62f26,task-2z3l,abx,1310.4,buttonB,Second,1,voice_04_clone_060.mp3,voice_04_human_060.mp3,NA,4,clone,human,Female,31,United Kingdom,2025-05-27T08:44:39.769000Z,1889,98,"North East, England    (Tees Valley, Durham, Northumberland and Tyne and Wear)"
331,19,6776fdc5d7a018d7d4b62f26,task-2z3l,abx,659.9,buttonA,First,1,voice_07_human_060.mp3,voice_07_clone_060.mp3,NA,7,human,clone,Female,31,United Kingdom,2025-05-27T08:44:39.769000Z,1889,98,"North East, England    (Tees Valley, Durham, Northumberland and Tyne and Wear)"
332,20,6776fdc5d7a018d7d4b62f26,task-2z3l,abx,675.7,buttonB,Second,1,voice_11_clone_060.mp3,voice_11_human_060.mp3,NA,11,clone,human,Female,31,United Kingdom,2025-05-27T08:44:39.769000Z,1889,98,"North East, England    (Tees Valley, Durham, Northumberland and Tyne and Wear)"
333,21,5fb7b711b8c8753771232b1b,task-2z3l,abx,3372,buttonA,First,1,voice_06_human_060.mp3,voice_06_clone_060.mp3,NA,6,human,clone,Female,23,United Kingdom,2025-05-27T09:11:24.068000Z,2351,171,"South East, England (Berkshire, Buckinghamshire, and Oxfordshire, Surrey, Sussex, Kent, Hampshire and Isle of Wight)"
334,22,5fb7b711b8c8753771232b1b,task-2z3l,abx,1610.7,buttonB,Second,1,voice_11_clone_060.mp3,voice_11_human_060.mp3,NA,11,clone,human,Female,23,United Kingdom,2025-05-27T09:11:24.068000Z,2351,171,"South East, England (Berkshire, Buckinghamshire, and Oxfordshire, Surrey, Sussex, Kent, Hampshire and Isle of Wight)"
335,23,5fb7b711b8c8753771232b1b,task-2z3l,abx,2497,buttonA,First,1,voice_08_human_060.mp3,voice_08_clone_060.mp3,NA,8,human,clone,Female,23,United Kingdom,2025-05-27T09:11:24.068000Z,2351,171,"South East, England (Berkshire, Buckinghamshire, and Oxfordshire, Surrey, Sussex, Kent, Hampshire and Isle of Wight)"
336,24,5fb7b711b8c8753771232b1b,task-2z3l,abx,936.7,buttonB,Second,1,voice_10_clone_060.mp3,voice_10_human_060.mp3,NA,10,clone,human,Female,23,United Kingdom,2025-05-27T09:11:24.068000Z,2351,171,"South East, England (Berkshire, Buckinghamshire, and Oxfordshire, Surrey, Sussex, Kent, Hampshire and Isle of Wight)"
337,27,5fb7b711b8c8753771232b1b,task-2z3l,abx,1158.4,buttonA,First,1,voice_09_human_060.mp3,voice_09_clone_060.mp3,NA,9,human,clone,Female,23,United Kingdom,2025-05-27T09:11:24.068000Z,2351,171,"South East, England (Berkshire, Buckinghamshire, and Oxfordshire, Surrey, Sussex, Kent, Hampshire and Isle of Wight)"
338,28,5fb7b711b8c8753771232b1b,task-2z3l,abx,1261.3,buttonB,Second,1,voice_01_clone_060.mp3,voice_01_human_060.mp3,NA,1,clone,human,Female,23,United Kingdom,2025-05-27T09:11:24.068000Z,2351,171,"South East, England (Berkshire, Buckinghamshire, and Oxfordshire, Surrey, Sussex, Kent, Hampshire and Isle of Wight)"
339,29,5fb7b711b8c8753771232b1b,task-2z3l,abx,596.0999999,buttonB,Second,1,voice_03_clone_060.mp3,voice_03_human_060.mp3,NA,3,clone,human,Female,23,United Kingdom,2025-05-27T09:11:24.068000Z,2351,171,"South East, England (Berkshire, Buckinghamshire, and Oxfordshire, Surrey, Sussex, Kent, Hampshire and Isle of Wight)"
340,30,5fb7b711b8c8753771232b1b,task-2z3l,abx,533.5999999,buttonA,First,1,voice_01_human_060.mp3,voice_01_clone_060.mp3,NA,1,human,clone,Female,23,United Kingdom,2025-05-27T09:11:24.068000Z,2351,171,"South East, England (Berkshire, Buckinghamshire, and Oxfordshire, Surrey, Sussex, Kent, Hampshire and Isle of Wight)"
341,32,5fb7b711b8c8753771232b1b,task-2z3l,abx,783,buttonA,First,1,voice_12_human_060.mp3,voice_12_clone_060.mp3,NA,12,human,clone,Female,23,United Kingdom,2025-05-27T09:11:24.068000Z,2351,171,"South East, England (Berkshire, Buckinghamshire, and Oxfordshire, Surrey, Sussex, Kent, Hampshire and Isle of Wight)"
342,34,5fb7b711b8c8753771232b1b,task-2z3l,abx,498,buttonA,First,1,voice_11_human_060.mp3,voice_11_clone_060.mp3,NA,11,human,clone,Female,23,United Kingdom,2025-05-27T09:11:24.068000Z,2351,171,"South East, England (Berkshire, Buckinghamshire, and Oxfordshire, Surrey, Sussex, Kent, Hampshire and Isle of Wight)"
343,35,5fb7b711b8c8753771232b1b,task-2z3l,abx,521.2,buttonB,Second,1,voice_09_clone_060.mp3,voice_09_human_060.mp3,NA,9,clone,human,Female,23,United Kingdom,2025-05-27T09:11:24.068000Z,2351,171,"South East, England (Berkshire, Buckinghamshire, and Oxfordshire, Surrey, Sussex, Kent, Hampshire and Isle of Wight)"
344,36,5fb7b711b8c8753771232b1b,task-2z3l,abx,643.5,buttonB,Second,1,voice_08_clone_060.mp3,voice_08_human_060.mp3,NA,8,clone,human,Female,23,United Kingdom,2025-05-27T09:11:24.068000Z,2351,171,"South East, England (Berkshire, Buckinghamshire, and Oxfordshire, Surrey, Sussex, Kent, Hampshire and Isle of Wight)"
345,37,5fb7b711b8c8753771232b1b,task-2z3l,abx,2646.7,buttonB,Second,1,voice_12_clone_060.mp3,voice_12_human_060.mp3,NA,12,clone,human,Female,23,United Kingdom,2025-05-27T09:11:24.068000Z,2351,171,"South East, England (Berkshire, Buckinghamshire, and Oxfordshire, Surrey, Sussex, Kent, Hampshire and Isle of Wight)"
346,38,5fb7b711b8c8753771232b1b,task-2z3l,abx,971.0999999,buttonA,First,1,voice_03_human_060.mp3,voice_03_clone_060.mp3,NA,3,human,clone,Female,23,United Kingdom,2025-05-27T09:11:24.068000Z,2351,171,"South East, England (Berkshire, Buckinghamshire, and Oxfordshire, Surrey, Sussex, Kent, Hampshire and Isle of Wight)"
347,39,5fb7b711b8c8753771232b1b,task-2z3l,abx,406.2,buttonA,First,1,voice_04_human_060.mp3,voice_04_clone_060.mp3,NA,4,human,clone,Female,23,United Kingdom,2025-05-27T09:11:24.068000Z,2351,171,"South East, England (Berkshire, Buckinghamshire, and Oxfordshire, Surrey, Sussex, Kent, Hampshire and Isle of Wight)"
348,40,5fb7b711b8c8753771232b1b,task-2z3l,abx,529.6000001,buttonB,Second,1,voice_04_clone_060.mp3,voice_04_human_060.mp3,NA,4,clone,human,Female,23,United Kingdom,2025-05-27T09:11:24.068000Z,2351,171,"South East, England (Berkshire, Buckinghamshire, and Oxfordshire, Surrey, Sussex, Kent, Hampshire and Isle of Wight)"
349,42,5bff21c4a1f0500001027953,task-2z3l,abx,741,buttonB,Second,1,voice_06_clone_060.mp3,voice_06_human_060.mp3,NA,6,clone,human,Female,33,United Kingdom,2025-05-27T09:56:02.843000Z,1608,134,"South East, England (Berkshire, Buckinghamshire, and Oxfordshire, Surrey, Sussex, Kent, Hampshire and Isle of Wight)"
350,45,5bff21c4a1f0500001027953,task-2z3l,abx,792.5,buttonB,Second,1,voice_03_clone_060.mp3,voice_03_human_060.mp3,NA,3,clone,human,Female,33,United Kingdom,2025-05-27T09:56:02.843000Z,1608,134,"South East, England (Berkshire, Buckinghamshire, and Oxfordshire, Surrey, Sussex, Kent, Hampshire and Isle of Wight)"
351,46,5bff21c4a1f0500001027953,task-2z3l,abx,501.6,buttonA,First,1,voice_08_human_060.mp3,voice_08_clone_060.mp3,NA,8,human,clone,Female,33,United Kingdom,2025-05-27T09:56:02.843000Z,1608,134,"South East, England (Berkshire, Buckinghamshire, and Oxfordshire, Surrey, Sussex, Kent, Hampshire and Isle of Wight)"
352,47,5bff21c4a1f0500001027953,task-2z3l,abx,1386.5,buttonB,Second,1,voice_07_clone_060.mp3,voice_07_human_060.mp3,NA,7,clone,human,Female,33,United Kingdom,2025-05-27T09:56:02.843000Z,1608,134,"South East, England (Berkshire, Buckinghamshire, and Oxfordshire, Surrey, Sussex, Kent, Hampshire and Isle of Wight)"
353,48,5bff21c4a1f0500001027953,task-2z3l,abx,611.5,buttonA,First,1,voice_07_human_060.mp3,voice_07_clone_060.mp3,NA,7,human,clone,Female,33,United Kingdom,2025-05-27T09:56:02.843000Z,1608,134,"South East, England (Berkshire, Buckinghamshire, and Oxfordshire, Surrey, Sussex, Kent, Hampshire and Isle of Wight)"
354,49,5bff21c4a1f0500001027953,task-2z3l,abx,2678.3,buttonA,First,1,voice_01_human_060.mp3,voice_01_clone_060.mp3,NA,1,human,clone,Female,33,United Kingdom,2025-05-27T09:56:02.843000Z,1608,134,"South East, England (Berkshire, Buckinghamshire, and Oxfordshire, Surrey, Sussex, Kent, Hampshire and Isle of Wight)"
355,50,5bff21c4a1f0500001027953,task-2z3l,abx,524.7,buttonB,Second,1,voice_01_clone_060.mp3,voice_01_human_060.mp3,NA,1,clone,human,Female,33,United Kingdom,2025-05-27T09:56:02.843000Z,1608,134,"South East, England (Berkshire, Buckinghamshire, and Oxfordshire, Surrey, Sussex, Kent, Hampshire and Isle of Wight)"
356,53,5bff21c4a1f0500001027953,task-2z3l,abx,609.9,buttonA,First,1,voice_09_human_060.mp3,voice_09_clone_060.mp3,NA,9,human,clone,Female,33,United Kingdom,2025-05-27T09:56:02.843000Z,1608,134,"South East, England (Berkshire, Buckinghamshire, and Oxfordshire, Surrey, Sussex, Kent, Hampshire and Isle of Wight)"
357,54,5bff21c4a1f0500001027953,task-2z3l,abx,846,buttonA,First,1,voice_04_human_060.mp3,voice_04_clone_060.mp3,NA,4,human,clone,Female,33,United Kingdom,2025-05-27T09:56:02.843000Z,1608,134,"South East, England (Berkshire, Buckinghamshire, and Oxfordshire, Surrey, Sussex, Kent, Hampshire and Isle of Wight)"
358,55,5bff21c4a1f0500001027953,task-2z3l,abx,1402.6,buttonA,First,1,voice_11_human_060.mp3,voice_11_clone_060.mp3,NA,11,human,clone,Female,33,United Kingdom,2025-05-27T09:56:02.843000Z,1608,134,"South East, England (Berkshire, Buckinghamshire, and Oxfordshire, Surrey, Sussex, Kent, Hampshire and Isle of Wight)"
359,56,5bff21c4a1f0500001027953,task-2z3l,abx,396.4,buttonB,Second,1,voice_09_clone_060.mp3,voice_09_human_060.mp3,NA,9,clone,human,Female,33,United Kingdom,2025-05-27T09:56:02.843000Z,1608,134,"South East, England (Berkshire, Buckinghamshire, and Oxfordshire, Surrey, Sussex, Kent, Hampshire and Isle of Wight)"
360,57,5bff21c4a1f0500001027953,task-2z3l,abx,511.2,buttonA,First,1,voice_06_human_060.mp3,voice_06_clone_060.mp3,NA,6,human,clone,Female,33,United Kingdom,2025-05-27T09:56:02.843000Z,1608,134,"South East, England (Berkshire, Buckinghamshire, and Oxfordshire, Surrey, Sussex, Kent, Hampshire and Isle of Wight)"
361,58,5bff21c4a1f0500001027953,task-2z3l,abx,553.9,buttonB,Second,1,voice_12_clone_060.mp3,voice_12_human_060.mp3,NA,12,clone,human,Female,33,United Kingdom,2025-05-27T09:56:02.843000Z,1608,134,"South East, England (Berkshire, Buckinghamshire, and Oxfordshire, Surrey, Sussex, Kent, Hampshire and Isle of Wight)"
362,59,5bff21c4a1f0500001027953,task-2z3l,abx,3059.1,buttonB,Second,1,voice_08_clone_060.mp3,voice_08_human_060.mp3,NA,8,clone,human,Female,33,United Kingdom,2025-05-27T09:56:02.843000Z,1608,134,"South East, England (Berkshire, Buckinghamshire, and Oxfordshire, Surrey, Sussex, Kent, Hampshire and Isle of Wight)"
363,60,5bff21c4a1f0500001027953,task-2z3l,abx,1743.9,buttonA,First,1,voice_12_human_060.mp3,voice_12_clone_060.mp3,NA,12,human,clone,Female,33,United Kingdom,2025-05-27T09:56:02.843000Z,1608,134,"South East, England (Berkshire, Buckinghamshire, and Oxfordshire, Surrey, Sussex, Kent, Hampshire and Isle of Wight)"
364,61,6773e0c2bb0187b6ecc2c835,task-2z3l,abx,1083,buttonA,First,1,voice_12_human_060.mp3,voice_12_clone_060.mp3,NA,12,human,clone,Female,35,United Kingdom,2025-05-27T11:04:46.328000Z,1700,68,"South West, England (Gloucestershire, Wiltshire and Bristol/Bath area, Dorset and Somerset, Cornwall and Isles of Scilly, Devon)"
365,62,6773e0c2bb0187b6ecc2c835,task-2z3l,abx,911,buttonA,First,1,voice_08_human_060.mp3,voice_08_clone_060.mp3,NA,8,human,clone,Female,35,United Kingdom,2025-05-27T11:04:46.328000Z,1700,68,"South West, England (Gloucestershire, Wiltshire and Bristol/Bath area, Dorset and Somerset, Cornwall and Isles of Scilly, Devon)"
366,63,6773e0c2bb0187b6ecc2c835,task-2z3l,abx,1676,buttonB,Second,1,voice_01_clone_060.mp3,voice_01_human_060.mp3,NA,1,clone,human,Female,35,United Kingdom,2025-05-27T11:04:46.328000Z,1700,68,"South West, England (Gloucestershire, Wiltshire and Bristol/Bath area, Dorset and Somerset, Cornwall and Isles of Scilly, Devon)"
367,64,6773e0c2bb0187b6ecc2c835,task-2z3l,abx,937,buttonA,First,1,voice_03_human_060.mp3,voice_03_clone_060.mp3,NA,3,human,clone,Female,35,United Kingdom,2025-05-27T11:04:46.328000Z,1700,68,"South West, England (Gloucestershire, Wiltshire and Bristol/Bath area, Dorset and Somerset, Cornwall and Isles of Scilly, Devon)"
368,65,6773e0c2bb0187b6ecc2c835,task-2z3l,abx,1189,buttonB,Second,1,voice_08_clone_060.mp3,voice_08_human_060.mp3,NA,8,clone,human,Female,35,United Kingdom,2025-05-27T11:04:46.328000Z,1700,68,"South West, England (Gloucestershire, Wiltshire and Bristol/Bath area, Dorset and Somerset, Cornwall and Isles of Scilly, Devon)"
369,66,6773e0c2bb0187b6ecc2c835,task-2z3l,abx,805,buttonB,Second,1,voice_04_clone_060.mp3,voice_04_human_060.mp3,NA,4,clone,human,Female,35,United Kingdom,2025-05-27T11:04:46.328000Z,1700,68,"South West, England (Gloucestershire, Wiltshire and Bristol/Bath area, Dorset and Somerset, Cornwall and Isles of Scilly, Devon)"
370,68,6773e0c2bb0187b6ecc2c835,task-2z3l,abx,827,buttonB,Second,1,voice_09_clone_060.mp3,voice_09_human_060.mp3,NA,9,clone,human,Female,35,United Kingdom,2025-05-27T11:04:46.328000Z,1700,68,"South West, England (Gloucestershire, Wiltshire and Bristol/Bath area, Dorset and Somerset, Cornwall and Isles of Scilly, Devon)"
371,69,6773e0c2bb0187b6ecc2c835,task-2z3l,abx,2149,buttonA,First,1,voice_10_human_060.mp3,voice_10_clone_060.mp3,NA,10,human,clone,Female,35,United Kingdom,2025-05-27T11:04:46.328000Z,1700,68,"South West, England (Gloucestershire, Wiltshire and Bristol/Bath area, Dorset and Somerset, Cornwall and Isles of Scilly, Devon)"
372,70,6773e0c2bb0187b6ecc2c835,task-2z3l,abx,865,buttonB,Second,1,voice_07_clone_060.mp3,voice_07_human_060.mp3,NA,7,clone,human,Female,35,United Kingdom,2025-05-27T11:04:46.328000Z,1700,68,"South West, England (Gloucestershire, Wiltshire and Bristol/Bath area, Dorset and Somerset, Cornwall and Isles of Scilly, Devon)"
373,71,6773e0c2bb0187b6ecc2c835,task-2z3l,abx,2318,buttonA,First,1,voice_11_human_060.mp3,voice_11_clone_060.mp3,NA,11,human,clone,Female,35,United Kingdom,2025-05-27T11:04:46.328000Z,1700,68,"South West, England (Gloucestershire, Wiltshire and Bristol/Bath area, Dorset and Somerset, Cornwall and Isles of Scilly, Devon)"
374,72,6773e0c2bb0187b6ecc2c835,task-2z3l,abx,843,buttonB,Second,1,voice_10_clone_060.mp3,voice_10_human_060.mp3,NA,10,clone,human,Female,35,United Kingdom,2025-05-27T11:04:46.328000Z,1700,68,"South West, England (Gloucestershire, Wiltshire and Bristol/Bath area, Dorset and Somerset, Cornwall and Isles of Scilly, Devon)"
375,74,6773e0c2bb0187b6ecc2c835,task-2z3l,abx,998,buttonA,First,1,voice_01_human_060.mp3,voice_01_clone_060.mp3,NA,1,human,clone,Female,35,United Kingdom,2025-05-27T11:04:46.328000Z,1700,68,"South West, England (Gloucestershire, Wiltshire and Bristol/Bath area, Dorset and Somerset, Cornwall and Isles of Scilly, Devon)"
376,75,6773e0c2bb0187b6ecc2c835,task-2z3l,abx,745,buttonA,First,1,voice_06_human_060.mp3,voice_06_clone_060.mp3,NA,6,human,clone,Female,35,United Kingdom,2025-05-27T11:04:46.328000Z,1700,68,"South West, England (Gloucestershire, Wiltshire and Bristol/Bath area, Dorset and Somerset, Cornwall and Isles of Scilly, Devon)"
377,76,6773e0c2bb0187b6ecc2c835,task-2z3l,abx,833,buttonB,Second,1,voice_06_clone_060.mp3,voice_06_human_060.mp3,NA,6,clone,human,Female,35,United Kingdom,2025-05-27T11:04:46.328000Z,1700,68,"South West, England (Gloucestershire, Wiltshire and Bristol/Bath area, Dorset and Somerset, Cornwall and Isles of Scilly, Devon)"
378,77,6773e0c2bb0187b6ecc2c835,task-2z3l,abx,896,buttonA,First,1,voice_09_human_060.mp3,voice_09_clone_060.mp3,NA,9,human,clone,Female,35,United Kingdom,2025-05-27T11:04:46.328000Z,1700,68,"South West, England (Gloucestershire, Wiltshire and Bristol/Bath area, Dorset and Somerset, Cornwall and Isles of Scilly, Devon)"
379,78,6773e0c2bb0187b6ecc2c835,task-2z3l,abx,833,buttonB,Second,1,voice_03_clone_060.mp3,voice_03_human_060.mp3,NA,3,clone,human,Female,35,United Kingdom,2025-05-27T11:04:46.328000Z,1700,68,"South West, England (Gloucestershire, Wiltshire and Bristol/Bath area, Dorset and Somerset, Cornwall and Isles of Scilly, Devon)"
